      Time  Count  Quat W  Quat X  Quat Y  Quat Z  Accel X (g)  Accel Y (g)  Accel Z (g)  Gyro X (dps)  Gyro Y (dps)  Gyro Z (dps)     Yaw   Pitch    Roll       X       Y       Z  Grav X  Grav Y  Grav Z       Temp
0    0.054    6.0  0.9999  0.0038 -0.0002 -0.0001       0.0024      -0.0006       3.8566        -0.061        -0.061         0.000  0.0001  0.0004  0.0076  0.0001  0.0004 -0.0076  0.0004  0.0076  0.9999  34.835899
1    0.066    7.0  0.9999  0.0037 -0.0002  0.0000       0.0048      -0.0030       4.2392         0.000        -0.061         0.000 -0.0000  0.0005  0.0074 -0.0000  0.0005 -0.0074  0.0005  0.0074  0.9999  34.841801
2    0.070    8.0  0.9999  0.0037 -0.0002  0.0000       0.0048      -0.0030       4.2392         0.000        -0.061         0.000 -0.0000  0.0005  0.0074 -0.0000  0.0005 -0.0074  0.0005  0.0074  0.9999  34.841801
3    0.083    9.0  0.9999  0.0037 -0.0003  0.0000       0.0006      -0.0060       4.4853         0.000        -0.061         0.000 -0.0000  0.0006  0.0073 -0.0000  0.0006 -0.0073  0.0006  0.0073  0.9999  34.835899
4    0.085   10.0  0.9999  0.0037 -0.0003  0.0000       0.0006      -0.0060       4.4853         0.000        -0.061         0.000 -0.0000  0.0006  0.0073 -0.0000  0.0006 -0.0073  0.0006  0.0073  0.9999  34.835899
5    0.102   11.0  0.9999  0.0036 -0.0004  0.0000      -0.0006      -0.0048       4.6332        -0.061        -0.061         0.000 -0.0000  0.0007  0.0072 -0.0000  0.0007 -0.0072  0.0007  0.0072  0.9999  34.812401
6    0.110   12.0  0.9999  0.0036 -0.0004  0.0000       0.0000      -0.0042       4.7326        -0.061        -0.061         0.000 -0.0000  0.0008  0.0072 -0.0000  0.0008 -0.0072  0.0008  0.0072  0.9999  34.824100
7    0.113   13.0  0.9999  0.0036 -0.0004  0.0000       0.0000      -0.0042       4.7326        -0.061        -0.061         0.000 -0.0000  0.0008  0.0072 -0.0000  0.0008 -0.0072  0.0008  0.0072  0.9999  34.824100
8    0.132   14.0  0.9999  0.0035 -0.0005  0.0000       0.0030      -0.0030       4.7942         0.000        -0.061         0.000 -0.0000  0.0010  0.0071 -0.0000  0.0010 -0.0071  0.0010  0.0071  0.9999  34.830002
9    0.140   15.0  0.9999  0.0035 -0.0006  0.0000      -0.0006      -0.0030       4.8296        -0.061        -0.061         0.000 -0.0000  0.0012  0.0070 -0.0000  0.0012 -0.0070  0.0012  0.0070  0.9999  34.830002
10   0.144   16.0  0.9999  0.0035 -0.0006  0.0000      -0.0006      -0.0030       4.8296        -0.061        -0.061         0.000 -0.0000  0.0012  0.0070 -0.0000  0.0012 -0.0070  0.0012  0.0070  0.9999  34.830002
11   0.156   17.0  0.9999  0.0035 -0.0006  0.0000      -0.0006      -0.0030       4.8296        -0.061        -0.061         0.000 -0.0000  0.0012  0.0070 -0.0000  0.0012 -0.0070  0.0012  0.0070  0.9999  34.830002
12   0.164   18.0  0.9999  0.0034 -0.0006  0.0000       0.0000      -0.0060       4.8583        -0.061        -0.061         0.000 -0.0000  0.0012  0.0068 -0.0000  0.0012 -0.0068  0.0012  0.0068  0.9999  34.812401
13   0.173   19.0  0.9999  0.0034 -0.0007  0.0000      -0.0030      -0.0054       4.8697        -0.061        -0.061         0.000 -0.0000  0.0013  0.0068 -0.0000  0.0013 -0.0068  0.0013  0.0068  0.9999  34.812401
14   0.175   20.0  0.9999  0.0034 -0.0007  0.0000      -0.0030      -0.0054       4.8697        -0.061        -0.061         0.000 -0.0000  0.0013  0.0068 -0.0000  0.0013 -0.0068  0.0013  0.0068  0.9999  34.812401
15   0.188   21.0  0.9999  0.0034 -0.0007  0.0000      -0.0042      -0.0054       4.8798         0.000        -0.061        -0.061 -0.0000  0.0015  0.0067 -0.0000  0.0015 -0.0067  0.0015  0.0067  0.9999  34.841801
16   0.192   22.0  0.9999  0.0034 -0.0007  0.0000      -0.0042      -0.0054       4.8798         0.000        -0.061        -0.061 -0.0000  0.0015  0.0067 -0.0000  0.0015 -0.0067  0.0015  0.0067  0.9999  34.841801
17   0.212   23.0  0.9999  0.0033 -0.0008  0.0000      -0.0054      -0.0060       4.8900         0.000        -0.061         0.000 -0.0000  0.0016  0.0066 -0.0000  0.0016 -0.0066  0.0016  0.0066  0.9999  34.812401
18   0.221   24.0  0.9999  0.0033 -0.0008  0.0000      -0.0072      -0.0042       4.8966        -0.061        -0.061         0.000 -0.0000  0.0017  0.0066 -0.0000  0.0017 -0.0066  0.0017  0.0066  0.9999  34.830002
19   0.225   25.0  0.9999  0.0033 -0.0008  0.0000      -0.0072      -0.0042       4.8966        -0.061        -0.061         0.000 -0.0000  0.0017  0.0066 -0.0000  0.0017 -0.0066  0.0017  0.0066  0.9999  34.830002
20   0.242   26.0  0.9999  0.0032 -0.0009  0.0000      -0.0060      -0.0048       4.9014        -0.061        -0.061         0.000 -0.0000  0.0018  0.0065 -0.0000  0.0018 -0.0065  0.0018  0.0065  0.9999  34.830002
21   0.251   27.0  0.9999  0.0032 -0.0010  0.0000      -0.0030      -0.0012       4.9026        -0.061        -0.061        -0.061 -0.0000  0.0020  0.0064 -0.0000  0.0020 -0.0064  0.0020  0.0064  0.9999  34.824100
22   0.255   28.0  0.9999  0.0032 -0.0010  0.0000      -0.0030      -0.0012       4.9026        -0.061        -0.061        -0.061 -0.0000  0.0020  0.0064 -0.0000  0.0020 -0.0064  0.0020  0.0064  0.9999  34.824100
23   0.268   29.0  0.9999  0.0032 -0.0010  0.0000      -0.0036      -0.0036       4.9032        -0.061        -0.061         0.000 -0.0000  0.0021  0.0064 -0.0000  0.0021 -0.0064  0.0021  0.0064  0.9999  34.835899
24   0.276   30.0  0.9999  0.0031 -0.0011  0.0000      -0.0030       0.0000       4.8996         0.000        -0.061         0.000 -0.0000  0.0022  0.0062 -0.0000  0.0022 -0.0062  0.0022  0.0062  0.9999  34.830002
25   0.280   31.0  0.9999  0.0031 -0.0011  0.0000      -0.0030       0.0000       4.8996         0.000        -0.061         0.000 -0.0000  0.0022  0.0062 -0.0000  0.0022 -0.0062  0.0022  0.0062  0.9999  34.830002
26   0.302   32.0  0.9999  0.0031 -0.0012  0.0000      -0.0030      -0.0006       4.9008         0.000        -0.061         0.000 -0.0000  0.0023  0.0062 -0.0000  0.0023 -0.0062  0.0023  0.0062  0.9999  34.830002
27   0.311   33.0  0.9999  0.0030 -0.0012  0.0000      -0.0006      -0.0006       4.9014        -0.061        -0.061        -0.061 -0.0000  0.0024  0.0061 -0.0000  0.0024 -0.0061  0.0024  0.0061  0.9999  34.841801
28   0.314   34.0  0.9999  0.0030 -0.0012  0.0000      -0.0006      -0.0006       4.9014        -0.061        -0.061        -0.061 -0.0000  0.0024  0.0061 -0.0000  0.0024 -0.0061  0.0024  0.0061  0.9999  34.841801
29   0.326   35.0  0.9999  0.0030 -0.0013  0.0000       0.0000      -0.0006       4.9014        -0.061        -0.061         0.000 -0.0000  0.0026  0.0061 -0.0000  0.0026 -0.0061  0.0026  0.0061  0.9999  34.853500
30   0.330   36.0  0.9999  0.0030 -0.0013  0.0000       0.0000      -0.0006       4.9014        -0.061        -0.061         0.000 -0.0000  0.0026  0.0061 -0.0000  0.0026 -0.0061  0.0026  0.0061  0.9999  34.853500
31   0.352   37.0  0.9999  0.0030 -0.0013  0.0000       0.0012      -0.0006       4.8990         0.000        -0.061        -0.061 -0.0000  0.0027  0.0060 -0.0000  0.0027 -0.0060  0.0027  0.0060  0.9999  34.824100
32   0.361   38.0  0.9999  0.0030 -0.0014  0.0000       0.0030       0.0012       4.9002         0.000        -0.061         0.000 -0.0000  0.0028  0.0060 -0.0000  0.0028 -0.0060  0.0028  0.0060  0.9999  34.847599
33   0.370   39.0  0.9999  0.0029 -0.0015  0.0000      -0.0006       0.0018       4.8960        -0.061        -0.061        -0.061 -0.0000  0.0029  0.0059 -0.0000  0.0029 -0.0059  0.0029  0.0059  0.9999  34.818199
34   0.373   40.0  0.9999  0.0029 -0.0015  0.0000      -0.0006       0.0018       4.8960        -0.061        -0.061        -0.061 -0.0000  0.0029  0.0059 -0.0000  0.0029 -0.0059  0.0029  0.0059  0.9999  34.818199
35   0.387   41.0  0.9999  0.0029 -0.0015  0.0000      -0.0012      -0.0018       4.9002        -0.061        -0.061        -0.061 -0.0000  0.0030  0.0059 -0.0000  0.0030 -0.0059  0.0030  0.0059  0.9999  34.830002
36   0.396   42.0  0.9999  0.0029 -0.0015  0.0000      -0.0018      -0.0048       4.8990         0.000        -0.061         0.000 -0.0000  0.0030  0.0057 -0.0000  0.0030 -0.0057  0.0030  0.0057  0.9999  34.835899
37   0.400   43.0  0.9999  0.0029 -0.0015  0.0000      -0.0018      -0.0048       4.8990         0.000        -0.061         0.000 -0.0000  0.0030  0.0057 -0.0000  0.0030 -0.0057  0.0030  0.0057  0.9999  34.835899
38   0.422   44.0  0.9999  0.0028 -0.0016  0.0000      -0.0018      -0.0030       4.9026         0.000        -0.061         0.000 -0.0000  0.0032  0.0056 -0.0000  0.0032 -0.0056  0.0032  0.0056  0.9999  34.830002
39   0.430   45.0  0.9999  0.0028 -0.0016  0.0000       0.0018      -0.0054       4.9056        -0.061        -0.061         0.000 -0.0000  0.0033  0.0056 -0.0000  0.0033 -0.0056  0.0033  0.0056  0.9999  34.818199
40   0.434   46.0  0.9999  0.0028 -0.0016  0.0000       0.0018      -0.0054       4.9056        -0.061        -0.061         0.000 -0.0000  0.0033  0.0056 -0.0000  0.0033 -0.0056  0.0033  0.0056  0.9999  34.818199
41   0.445   47.0  0.9999  0.0028 -0.0017  0.0000       0.0012      -0.0084       4.9002        -0.061        -0.061         0.000 -0.0000  0.0034  0.0055 -0.0000  0.0034 -0.0055  0.0034  0.0055  0.9999  34.835899
42   0.449   48.0  0.9999  0.0028 -0.0017  0.0000       0.0012      -0.0084       4.9002        -0.061        -0.061         0.000 -0.0000  0.0034  0.0055 -0.0000  0.0034 -0.0055  0.0034  0.0055  0.9999  34.835899
43   0.472   49.0  0.9999  0.0028 -0.0018  0.0000      -0.0012      -0.0078       4.8990         0.000        -0.061        -0.061 -0.0000  0.0035  0.0055 -0.0000  0.0035 -0.0055  0.0035  0.0055  0.9999  34.818199
44   0.481   50.0  0.9999  0.0027 -0.0018  0.0000       0.0006      -0.0078       4.8984         0.000        -0.061         0.000 -0.0000  0.0037  0.0054 -0.0000  0.0037 -0.0054  0.0037  0.0054  0.9999  34.847599
45   0.489   51.0  0.9999  0.0026 -0.0019  0.0000       0.0006      -0.0084       4.8990        -0.061        -0.061        -0.061 -0.0000  0.0038  0.0052 -0.0000  0.0038 -0.0052  0.0038  0.0052  0.9999  34.835899
46   0.492   52.0  0.9999  0.0026 -0.0019  0.0000       0.0006      -0.0084       4.8990        -0.061        -0.061        -0.061 -0.0000  0.0038  0.0052 -0.0000  0.0038 -0.0052  0.0038  0.0052  0.9999  34.835899
47   0.512   53.0  0.9999  0.0026 -0.0019  0.0000      -0.0024      -0.0102       4.9044        -0.061        -0.061         0.000 -0.0000  0.0038  0.0052 -0.0000  0.0038 -0.0052  0.0038  0.0052  0.9999  34.824100
48   0.521   54.0  0.9999  0.0026 -0.0020  0.0000      -0.0024      -0.0102       4.9014        -0.061        -0.061         0.000 -0.0000  0.0039  0.0051 -0.0000  0.0039 -0.0051  0.0039  0.0051  0.9999  34.824100
49   0.524   55.0  0.9999  0.0026 -0.0020  0.0000      -0.0024      -0.0102       4.9014        -0.061        -0.061         0.000 -0.0000  0.0039  0.0051 -0.0000  0.0039 -0.0051  0.0039  0.0051  0.9999  34.824100
50   0.542   56.0  0.9999  0.0025 -0.0020  0.0000      -0.0018      -0.0084       4.9026        -0.061        -0.061         0.000 -0.0000  0.0040  0.0050 -0.0000  0.0040 -0.0050  0.0040  0.0050  0.9999  34.824100
51   0.550   57.0  0.9999  0.0025 -0.0021  0.0000      -0.0030      -0.0048       4.9008        -0.061        -0.061        -0.061 -0.0000  0.0042  0.0050 -0.0000  0.0042 -0.0050  0.0042  0.0050  0.9999  34.841801
52   0.554   58.0  0.9999  0.0025 -0.0021  0.0000      -0.0030      -0.0048       4.9008        -0.061        -0.061        -0.061 -0.0000  0.0042  0.0050 -0.0000  0.0042 -0.0050  0.0042  0.0050  0.9999  34.841801
53   0.567   59.0  0.9999  0.0024 -0.0021  0.0000      -0.0018      -0.0048       4.9020         0.000        -0.061         0.000 -0.0000  0.0042  0.0049 -0.0000  0.0042 -0.0049  0.0042  0.0049  0.9999  34.824100
54   0.571   60.0  0.9999  0.0024 -0.0021  0.0000      -0.0018      -0.0048       4.9020         0.000        -0.061         0.000 -0.0000  0.0042  0.0049 -0.0000  0.0042 -0.0049  0.0042  0.0049  0.9999  34.824100
55   0.592   61.0  0.9999  0.0024 -0.0021  0.0000      -0.0036      -0.0054       4.8996         0.000        -0.061         0.000 -0.0000  0.0043  0.0049 -0.0000  0.0043 -0.0049  0.0043  0.0049  0.9999  34.794701
56   0.596   62.0  0.9999  0.0024 -0.0021  0.0000      -0.0036      -0.0054       4.8996         0.000        -0.061         0.000 -0.0000  0.0043  0.0049 -0.0000  0.0043 -0.0049  0.0043  0.0049  0.9999  34.794701
57   0.612   63.0  0.9999  0.0024 -0.0022  0.0000      -0.0036      -0.0054       4.8954         0.000        -0.061         0.000 -0.0000  0.0044  0.0048 -0.0000  0.0044 -0.0048  0.0044  0.0048  0.9999  34.830002
58   0.616   64.0  0.9999  0.0024 -0.0022  0.0000      -0.0036      -0.0054       4.8954         0.000        -0.061         0.000 -0.0000  0.0044  0.0048 -0.0000  0.0044 -0.0048  0.0044  0.0048  0.9999  34.830002
59   0.632   65.0  0.9999  0.0024 -0.0023  0.0000      -0.0042      -0.0036       4.8990        -0.061        -0.061         0.000 -0.0000  0.0045  0.0048 -0.0000  0.0045 -0.0048  0.0045  0.0048  0.9999  34.835899
60   0.640   66.0  0.9999  0.0024 -0.0023  0.0000      -0.0036      -0.0036       4.8990         0.000        -0.061        -0.061 -0.0000  0.0045  0.0048 -0.0000  0.0045 -0.0048  0.0045  0.0048  0.9999  34.830002
61   0.644   67.0  0.9999  0.0024 -0.0023  0.0000      -0.0036      -0.0036       4.8990         0.000        -0.061        -0.061 -0.0000  0.0045  0.0048 -0.0000  0.0045 -0.0048  0.0045  0.0048  0.9999  34.830002
62   0.662   68.0  0.9999  0.0023 -0.0023  0.0000       0.0012      -0.0018       4.9008        -0.061        -0.061         0.000 -0.0000  0.0046  0.0046 -0.0000  0.0046 -0.0046  0.0046  0.0046  0.9999  34.818199
63   0.671   69.0  0.9999  0.0023 -0.0024  0.0000       0.0012      -0.0030       4.9008         0.000        -0.061         0.000 -0.0000  0.0048  0.0046 -0.0000  0.0048 -0.0046  0.0048  0.0046  0.9999  34.812401
64   0.675   70.0  0.9999  0.0023 -0.0024  0.0000       0.0012      -0.0030       4.9008         0.000        -0.061         0.000 -0.0000  0.0048  0.0046 -0.0000  0.0048 -0.0046  0.0048  0.0046  0.9999  34.812401
65   0.692   71.0  0.9999  0.0023 -0.0024  0.0000      -0.0024      -0.0030       4.9032         0.000        -0.061         0.000 -0.0000  0.0049  0.0045 -0.0000  0.0049 -0.0045  0.0049  0.0045  0.9999  34.824100
66   0.701   72.0  0.9999  0.0023 -0.0024  0.0000      -0.0018      -0.0060       4.9044        -0.061        -0.061         0.000 -0.0000  0.0049  0.0045 -0.0000  0.0049 -0.0045  0.0049  0.0045  0.9999  34.853500
67   0.779   80.0  0.9999  0.0021 -0.0027  0.0000       0.0024      -0.0048       4.9044         0.000        -0.061         0.000 -0.0000  0.0054  0.0043 -0.0000  0.0054 -0.0043  0.0054  0.0043  0.9999  34.847599
68   0.788   81.0  0.9999  0.0021 -0.0028  0.0000       0.0060      -0.0054       4.9008        -0.061        -0.061        -0.061 -0.0000  0.0055  0.0042 -0.0000  0.0055 -0.0042  0.0055  0.0042  0.9999  34.818199
69   0.790   82.0  0.9999  0.0021 -0.0028  0.0000       0.0060      -0.0054       4.9008        -0.061        -0.061        -0.061 -0.0000  0.0055  0.0042 -0.0000  0.0055 -0.0042  0.0055  0.0042  0.9999  34.818199
70   0.802   83.0  0.9999  0.0021 -0.0028  0.0000       0.0018      -0.0048       4.9014        -0.061        -0.061        -0.061 -0.0000  0.0055  0.0042 -0.0000  0.0055 -0.0042  0.0055  0.0042  0.9999  34.818199
71   0.804   84.0  0.9999  0.0021 -0.0028  0.0000       0.0018      -0.0048       4.9014        -0.061        -0.061        -0.061 -0.0000  0.0055  0.0042 -0.0000  0.0055 -0.0042  0.0055  0.0042  0.9999  34.818199
72   0.811   85.0  0.9999  0.0021 -0.0028  0.0000       0.0018      -0.0048       4.9014        -0.061        -0.061        -0.061 -0.0000  0.0055  0.0042 -0.0000  0.0055 -0.0042  0.0055  0.0042  0.9999  34.818199
73   0.822   86.0  0.9999  0.0020 -0.0028  0.0000       0.0030      -0.0024       4.8990        -0.061        -0.061         0.000 -0.0000  0.0056  0.0040 -0.0000  0.0056 -0.0040  0.0056  0.0040  0.9999  34.818199
74   0.826   87.0  0.9999  0.0020 -0.0028  0.0000       0.0030      -0.0024       4.8990        -0.061        -0.061         0.000 -0.0000  0.0056  0.0040 -0.0000  0.0056 -0.0040  0.0056  0.0040  0.9999  34.818199
75   0.842   88.0  0.9999  0.0020 -0.0029  0.0000       0.0030       0.0006       4.8990        -0.061        -0.061         0.000 -0.0000  0.0057  0.0040 -0.0000  0.0057 -0.0040  0.0057  0.0040  0.9999  34.824100
76   0.850   89.0  0.9999  0.0020 -0.0029  0.0000       0.0012       0.0012       4.9002         0.000        -0.061         0.000 -0.0000  0.0057  0.0040 -0.0000  0.0057 -0.0040  0.0057  0.0040  0.9999  34.812401
77   0.854   90.0  0.9999  0.0020 -0.0029  0.0000       0.0012       0.0012       4.9002         0.000        -0.061         0.000 -0.0000  0.0057  0.0040 -0.0000  0.0057 -0.0040  0.0057  0.0040  0.9999  34.812401
78   0.867   91.0  0.9999  0.0020 -0.0029  0.0000      -0.0030       0.0012       4.8996        -0.061        -0.061         0.000 -0.0000  0.0059  0.0039 -0.0000  0.0059 -0.0039  0.0059  0.0039  0.9999  34.841801
79   0.869   92.0  0.9999  0.0020 -0.0029  0.0000      -0.0030       0.0012       4.8996        -0.061        -0.061         0.000 -0.0000  0.0059  0.0039 -0.0000  0.0059 -0.0039  0.0059  0.0039  0.9999  34.841801
80   0.882   93.0  0.9999  0.0020 -0.0029  0.0000       0.0012       0.0012       4.8996        -0.061        -0.061        -0.061 -0.0000  0.0059  0.0039 -0.0000  0.0059 -0.0039  0.0059  0.0039  0.9999  34.830002
81   0.886   94.0  0.9999  0.0020 -0.0029  0.0000       0.0012       0.0012       4.8996        -0.061        -0.061        -0.061 -0.0000  0.0059  0.0039 -0.0000  0.0059 -0.0039  0.0059  0.0039  0.9999  34.830002
82   0.897   95.0  0.9999  0.0020 -0.0030  0.0000       0.0024      -0.0006       4.9014         0.000        -0.061         0.000 -0.0000  0.0060  0.0039 -0.0000  0.0060 -0.0039  0.0060  0.0039  0.9999  34.824100
83   0.901   96.0  0.9999  0.0020 -0.0030  0.0000       0.0024      -0.0006       4.9014         0.000        -0.061         0.000 -0.0000  0.0060  0.0039 -0.0000  0.0060 -0.0039  0.0060  0.0039  0.9999  34.824100
84   0.912   97.0  0.9999  0.0019 -0.0030  0.0000      -0.0024      -0.0018       4.9026         0.000        -0.061         0.000 -0.0000  0.0061  0.0038 -0.0000  0.0061 -0.0038  0.0061  0.0038  0.9999  34.853500
85   0.915   98.0  0.9999  0.0019 -0.0030  0.0000      -0.0024      -0.0018       4.9026         0.000        -0.061         0.000 -0.0000  0.0061  0.0038 -0.0000  0.0061 -0.0038  0.0061  0.0038  0.9999  34.853500
86   0.931   99.0  0.9999  0.0019 -0.0030  0.0000      -0.0042      -0.0024       4.9026        -0.061        -0.061         0.000 -0.0000  0.0061  0.0038 -0.0000  0.0061 -0.0038  0.0061  0.0038  0.9999  34.835899
87   0.939  100.0  0.9999  0.0019 -0.0031  0.0000      -0.0024       0.0000       4.9014        -0.061        -0.061         0.000 -0.0000  0.0062  0.0038 -0.0000  0.0062 -0.0038  0.0062  0.0038  0.9999  34.841801
88   0.943  101.0  0.9999  0.0019 -0.0031  0.0000      -0.0024       0.0000       4.9014        -0.061        -0.061         0.000 -0.0000  0.0062  0.0038 -0.0000  0.0062 -0.0038  0.0062  0.0038  0.9999  34.841801
89   0.962  102.0  0.9999  0.0019 -0.0031  0.0000      -0.0042      -0.0012       4.9014        -0.061        -0.061         0.000 -0.0000  0.0062  0.0038 -0.0000  0.0062 -0.0038  0.0062  0.0038  0.9999  34.818199
90   0.970  103.0  0.9999  0.0018 -0.0032  0.0000      -0.0048      -0.0012       4.8996         0.000        -0.061         0.000 -0.0000  0.0064  0.0037 -0.0000  0.0064 -0.0037  0.0064  0.0037  0.9999  34.824100
91   0.974  104.0  0.9999  0.0018 -0.0032  0.0000      -0.0048      -0.0012       4.8996         0.000        -0.061         0.000 -0.0000  0.0064  0.0037 -0.0000  0.0064 -0.0037  0.0064  0.0037  0.9999  34.824100
92   1.061  112.0  0.9999  0.0017 -0.0034  0.0001      -0.0030      -0.0030       4.8942        -0.061        -0.061         0.000 -0.0001  0.0067  0.0034 -0.0001  0.0067 -0.0034  0.0067  0.0034  0.9999  34.824100
93   1.065  113.0  0.9999  0.0017 -0.0034  0.0001      -0.0030      -0.0030       4.8942        -0.061        -0.061         0.000 -0.0001  0.0067  0.0034 -0.0001  0.0067 -0.0034  0.0067  0.0034  0.9999  34.824100
94   1.075  114.0  0.9999  0.0017 -0.0034  0.0001      -0.0018      -0.0048       4.8948         0.000        -0.061         0.000 -0.0001  0.0068  0.0034 -0.0001  0.0068 -0.0034  0.0068  0.0034  0.9999  34.841801
95   1.078  115.0  0.9999  0.0017 -0.0034  0.0001      -0.0018      -0.0048       4.8948         0.000        -0.061         0.000 -0.0001  0.0068  0.0034 -0.0001  0.0068 -0.0034  0.0068  0.0034  0.9999  34.841801
96   1.092  116.0  0.9999  0.0016 -0.0034  0.0001       0.0006      -0.0030       4.8978         0.000        -0.061         0.000 -0.0001  0.0068  0.0033 -0.0001  0.0068 -0.0033  0.0068  0.0033  0.9999  34.830002
97   1.096  117.0  0.9999  0.0016 -0.0034  0.0001       0.0006      -0.0030       4.8978         0.000        -0.061         0.000 -0.0001  0.0068  0.0033 -0.0001  0.0068 -0.0033  0.0068  0.0033  0.9999  34.830002
98   1.106  118.0  0.9999  0.0016 -0.0035  0.0001       0.0012      -0.0060       4.8972        -0.061        -0.061        -0.061 -0.0001  0.0070  0.0033 -0.0001  0.0070 -0.0033  0.0070  0.0033  0.9999  34.824100
99   1.110  119.0  0.9999  0.0016 -0.0035  0.0001       0.0012      -0.0060       4.8972        -0.061        -0.061        -0.061 -0.0001  0.0070  0.0033 -0.0001  0.0070 -0.0033  0.0070  0.0033  0.9999  34.824100
100  1.259  135.0  0.9999  0.0015 -0.0038  0.0001      -0.0030      -0.0036       4.8948        -0.061        -0.061         0.000 -0.0001  0.0076  0.0029 -0.0001  0.0076 -0.0029  0.0076  0.0029  0.9999  34.841801
101  1.267  136.0  0.9999  0.0015 -0.0038  0.0001      -0.0024      -0.0036       4.8894        -0.061        -0.061         0.000 -0.0001  0.0077  0.0029 -0.0001  0.0077 -0.0029  0.0077  0.0029  0.9999  34.835899
102  1.271  137.0  0.9999  0.0015 -0.0038  0.0001      -0.0024      -0.0036       4.8894        -0.061        -0.061         0.000 -0.0001  0.0077  0.0029 -0.0001  0.0077 -0.0029  0.0077  0.0029  0.9999  34.835899
103  1.286  138.0  0.9999  0.0015 -0.0038  0.0001      -0.0024      -0.0036       4.8894        -0.061        -0.061         0.000 -0.0001  0.0077  0.0029 -0.0001  0.0077 -0.0029  0.0077  0.0029  0.9999  34.835899
104  1.295  139.0  0.9999  0.0014 -0.0038  0.0001      -0.0012      -0.0018       4.8924         0.000        -0.061         0.000 -0.0001  0.0077  0.0028 -0.0001  0.0077 -0.0028  0.0077  0.0028  0.9999  34.835899
105  1.304  140.0  0.9999  0.0014 -0.0038  0.0001      -0.0012      -0.0036       4.8978        -0.061        -0.061         0.000 -0.0001  0.0077  0.0028 -0.0001  0.0077 -0.0028  0.0077  0.0028  0.9999  34.841801
106  1.313  141.0  0.9999  0.0014 -0.0039  0.0001       0.0000      -0.0042       4.8948        -0.061        -0.061         0.000 -0.0001  0.0078  0.0028 -0.0001  0.0078 -0.0028  0.0078  0.0028  0.9999  34.830002
107  1.317  142.0  0.9999  0.0014 -0.0039  0.0001       0.0000      -0.0042       4.8948        -0.061        -0.061         0.000 -0.0001  0.0078  0.0028 -0.0001  0.0078 -0.0028  0.0078  0.0028  0.9999  34.830002
108  1.332  143.0  0.9999  0.0013 -0.0039  0.0001      -0.0024      -0.0054       4.9002         0.000        -0.061         0.000 -0.0001  0.0078  0.0027 -0.0001  0.0078 -0.0027  0.0078  0.0027  0.9999  34.835899
109  1.336  144.0  0.9999  0.0013 -0.0039  0.0001      -0.0024      -0.0054       4.9002         0.000        -0.061         0.000 -0.0001  0.0078  0.0027 -0.0001  0.0078 -0.0027  0.0078  0.0027  0.9999  34.835899
110  1.352  145.0  0.9999  0.0013 -0.0040  0.0001      -0.0042      -0.0024       4.8996         0.000        -0.061        -0.061 -0.0001  0.0079  0.0027 -0.0001  0.0079 -0.0027  0.0079  0.0027  0.9999  34.830002
111  1.360  146.0  0.9999  0.0013 -0.0040  0.0001      -0.0024      -0.0030       4.9002        -0.061        -0.061         0.000 -0.0001  0.0079  0.0027 -0.0001  0.0079 -0.0027  0.0079  0.0027  0.9999  34.847599
112  1.364  147.0  0.9999  0.0013 -0.0040  0.0001      -0.0024      -0.0030       4.9002        -0.061        -0.061         0.000 -0.0001  0.0079  0.0027 -0.0001  0.0079 -0.0027  0.0079  0.0027  0.9999  34.847599
113  1.382  148.0  0.9999  0.0013 -0.0040  0.0001      -0.0030      -0.0024       4.9002        -0.061        -0.061         0.000 -0.0001  0.0079  0.0027 -0.0001  0.0079 -0.0027  0.0079  0.0027  0.9999  34.818199
114  1.390  149.0  0.9999  0.0013 -0.0040  0.0001       0.0000      -0.0012       4.8978        -0.061        -0.061         0.000 -0.0001  0.0081  0.0026 -0.0001  0.0081 -0.0026  0.0081  0.0026  0.9999  34.847599
115  1.394  150.0  0.9999  0.0013 -0.0040  0.0001       0.0000      -0.0012       4.8978        -0.061        -0.061         0.000 -0.0001  0.0081  0.0026 -0.0001  0.0081 -0.0026  0.0081  0.0026  0.9999  34.847599
116  1.412  151.0  0.9999  0.0013 -0.0040  0.0001      -0.0012      -0.0024       4.8960        -0.061        -0.061         0.000 -0.0001  0.0081  0.0026 -0.0001  0.0081 -0.0026  0.0081  0.0026  0.9999  34.830002
117  1.420  152.0  0.9999  0.0013 -0.0041  0.0001      -0.0036      -0.0012       4.8972        -0.061        -0.061         0.000 -0.0001  0.0082  0.0026 -0.0001  0.0082 -0.0026  0.0082  0.0026  0.9999  34.830002
118  1.424  153.0  0.9999  0.0013 -0.0041  0.0001      -0.0036      -0.0012       4.8972        -0.061        -0.061         0.000 -0.0001  0.0082  0.0026 -0.0001  0.0082 -0.0026  0.0082  0.0026  0.9999  34.830002
119  1.442  154.0  0.9999  0.0012 -0.0041  0.0001      -0.0030      -0.0060       4.8972        -0.061        -0.061         0.000 -0.0001  0.0082  0.0024 -0.0001  0.0082 -0.0024  0.0082  0.0024  0.9999  34.830002
120  1.451  155.0  0.9999  0.0012 -0.0042  0.0001      -0.0018      -0.0036       4.8978         0.000        -0.061         0.000 -0.0001  0.0083  0.0024 -0.0001  0.0083 -0.0024  0.0083  0.0024  0.9999  34.824100
121  1.454  156.0  0.9999  0.0012 -0.0042  0.0001      -0.0018      -0.0036       4.8978         0.000        -0.061         0.000 -0.0001  0.0083  0.0024 -0.0001  0.0083 -0.0024  0.0083  0.0024  0.9999  34.824100
122  1.472  157.0  0.9999  0.0012 -0.0042  0.0001      -0.0012      -0.0030       4.8966         0.000        -0.061         0.000 -0.0001  0.0083  0.0024 -0.0001  0.0083 -0.0024  0.0083  0.0024  0.9999  34.835899
123  1.481  158.0  0.9999  0.0012 -0.0042  0.0001      -0.0042      -0.0006       4.8942        -0.061        -0.061         0.000 -0.0001  0.0083  0.0024 -0.0001  0.0083 -0.0024  0.0083  0.0024  0.9999  34.818199
124  1.485  159.0  0.9999  0.0012 -0.0042  0.0001      -0.0042      -0.0006       4.8942        -0.061        -0.061         0.000 -0.0001  0.0083  0.0024 -0.0001  0.0083 -0.0024  0.0083  0.0024  0.9999  34.818199
125  1.498  160.0  0.9999  0.0012 -0.0042  0.0001      -0.0054       0.0000       4.8972         0.000        -0.061         0.000 -0.0001  0.0084  0.0024 -0.0001  0.0084 -0.0024  0.0084  0.0024  0.9999  34.812401
126  1.502  161.0  0.9999  0.0012 -0.0042  0.0001      -0.0054       0.0000       4.8972         0.000        -0.061         0.000 -0.0001  0.0084  0.0024 -0.0001  0.0084 -0.0024  0.0084  0.0024  0.9999  34.812401
127  1.522  162.0  0.9999  0.0012 -0.0042  0.0001      -0.0012      -0.0030       4.8966         0.000        -0.061         0.000 -0.0001  0.0084  0.0023 -0.0001  0.0084 -0.0023  0.0084  0.0023  0.9999  34.835899
128  1.526  163.0  0.9999  0.0012 -0.0042  0.0001      -0.0012      -0.0030       4.8966         0.000        -0.061         0.000 -0.0001  0.0084  0.0023 -0.0001  0.0084 -0.0023  0.0084  0.0023  0.9999  34.835899
129  1.601  171.0  0.9999  0.0012 -0.0044  0.0001       0.0042      -0.0024       4.8978        -0.061        -0.061         0.000 -0.0001  0.0088  0.0023 -0.0001  0.0088 -0.0023  0.0088  0.0023  0.9999  34.841801
130  1.605  172.0  0.9999  0.0012 -0.0044  0.0001       0.0042      -0.0024       4.8978        -0.061        -0.061         0.000 -0.0001  0.0088  0.0023 -0.0001  0.0088 -0.0023  0.0088  0.0023  0.9999  34.841801
131  1.617  173.0  0.9999  0.0011 -0.0044  0.0001       0.0042      -0.0018       4.8948         0.000        -0.061         0.000 -0.0001  0.0088  0.0022 -0.0001  0.0088 -0.0022  0.0088  0.0022  0.9999  34.830002
132  1.619  174.0  0.9999  0.0011 -0.0044  0.0001       0.0042      -0.0018       4.8948         0.000        -0.061         0.000 -0.0001  0.0088  0.0022 -0.0001  0.0088 -0.0022  0.0088  0.0022  0.9999  34.830002
133  1.630  175.0  0.9999  0.0011 -0.0044  0.0001       0.0012      -0.0012       4.8966         0.000        -0.061         0.000 -0.0001  0.0088  0.0022 -0.0001  0.0088 -0.0022  0.0088  0.0022  0.9999  34.824100
134  1.634  176.0  0.9999  0.0011 -0.0044  0.0001       0.0012      -0.0012       4.8966         0.000        -0.061         0.000 -0.0001  0.0088  0.0022 -0.0001  0.0088 -0.0022  0.0088  0.0022  0.9999  34.824100
135  1.648  177.0  0.9999  0.0011 -0.0045  0.0001       0.0012      -0.0012       4.8984        -0.061        -0.061         0.000 -0.0001  0.0089  0.0022 -0.0001  0.0089 -0.0022  0.0089  0.0022  0.9999  34.818199
136  1.652  178.0  0.9999  0.0011 -0.0045  0.0001       0.0012      -0.0012       4.8984        -0.061        -0.061         0.000 -0.0001  0.0089  0.0022 -0.0001  0.0089 -0.0022  0.0089  0.0022  0.9999  34.818199
137  1.672  179.0  0.9999  0.0011 -0.0045  0.0001       0.0006      -0.0006       4.8966        -0.061        -0.061        -0.061 -0.0001  0.0089  0.0022 -0.0001  0.0089 -0.0022  0.0089  0.0022  0.9999  34.806499
138  1.680  180.0  0.9999  0.0011 -0.0045  0.0001      -0.0006       0.0000       4.8960         0.000        -0.061         0.000 -0.0001  0.0089  0.0022 -0.0001  0.0089 -0.0022  0.0089  0.0022  0.9999  34.835899
139  1.688  181.0  0.9999  0.0011 -0.0045  0.0001      -0.0018       0.0012       4.8978         0.000        -0.061         0.000 -0.0001  0.0090  0.0022 -0.0001  0.0090 -0.0022  0.0090  0.0022  0.9999  34.841801
140  1.692  182.0  0.9999  0.0011 -0.0045  0.0001      -0.0018       0.0012       4.8978         0.000        -0.061         0.000 -0.0001  0.0090  0.0022 -0.0001  0.0090 -0.0022  0.0090  0.0022  0.9999  34.841801
141  1.703  183.0  0.9999  0.0011 -0.0045  0.0001      -0.0018       0.0000       4.8984         0.000        -0.061         0.000 -0.0001  0.0090  0.0022 -0.0001  0.0090 -0.0022  0.0090  0.0022  0.9999  34.835899
142  1.707  184.0  0.9999  0.0011 -0.0045  0.0001      -0.0018       0.0000       4.8984         0.000        -0.061         0.000 -0.0001  0.0090  0.0022 -0.0001  0.0090 -0.0022  0.0090  0.0022  0.9999  34.835899
143  1.717  185.0  0.9999  0.0010 -0.0045  0.0001      -0.0048      -0.0012       4.8942         0.000        -0.061         0.000 -0.0001  0.0090  0.0021 -0.0001  0.0090 -0.0021  0.0090  0.0021  0.9999  34.824100
144  1.721  186.0  0.9999  0.0010 -0.0045  0.0001      -0.0048      -0.0012       4.8942         0.000        -0.061         0.000 -0.0001  0.0090  0.0021 -0.0001  0.0090 -0.0021  0.0090  0.0021  0.9999  34.824100
145  1.742  187.0  0.9999  0.0010 -0.0045  0.0001      -0.0072      -0.0030       4.8954         0.000        -0.061         0.000 -0.0001  0.0090  0.0021 -0.0001  0.0090 -0.0021  0.0090  0.0021  0.9999  34.830002
146  1.750  188.0  0.9999  0.0010 -0.0045  0.0001      -0.0054      -0.0030       4.8972        -0.061        -0.061         0.000 -0.0001  0.0090  0.0021 -0.0001  0.0090 -0.0021  0.0090  0.0021  0.9999  34.818199
147  1.754  189.0  0.9999  0.0010 -0.0045  0.0001      -0.0054      -0.0030       4.8972        -0.061        -0.061         0.000 -0.0001  0.0090  0.0021 -0.0001  0.0090 -0.0021  0.0090  0.0021  0.9999  34.818199
148  1.772  190.0  0.9999  0.0010 -0.0046  0.0001      -0.0048      -0.0030       4.9002        -0.061        -0.061         0.000 -0.0001  0.0092  0.0021 -0.0001  0.0092 -0.0021  0.0092  0.0021  0.9999  34.859402
149  1.781  191.0  0.9999  0.0010 -0.0046  0.0001      -0.0072      -0.0012       4.8972         0.000        -0.061         0.000 -0.0001  0.0092  0.0021 -0.0001  0.0092 -0.0021  0.0092  0.0021  0.9999  34.841801