       Accel X (g)
0         0.002400
1         0.004800
2         0.004800
3         0.000600
4         0.000600
5        -0.000600
6         0.000000
7         0.000000
8         0.003000
9        -0.000600
10       -0.000600
11       -0.000600
12        0.000000
13       -0.003000
14       -0.003000
15       -0.004200
16       -0.004200
17       -0.005400
18       -0.007200
19       -0.007200
20       -0.006000
21       -0.003000
22       -0.003000
23       -0.003600
24       -0.003000
25       -0.003000
26       -0.003000
27       -0.000600
28       -0.000600
29        0.000000
30        0.000000
31        0.001200
32        0.003000
33       -0.000600
34       -0.000600
35       -0.001200
36       -0.001800
37       -0.001800
38       -0.001800
39        0.001800
40        0.001800
41        0.001200
42        0.001200
43       -0.001200
44        0.000600
45        0.000600
46        0.000600
47       -0.002400
48       -0.002400
49       -0.002400
50       -0.001800
51       -0.003000
52       -0.003000
53       -0.001800
54       -0.001800
55       -0.003600
56       -0.003600
57       -0.003600
58       -0.003600
59       -0.004200
60       -0.003600
61       -0.003600
62        0.001200
63        0.001200
64        0.001200
65       -0.002400
66       -0.001800
67        0.002400
68        0.006000
69        0.006000
70        0.001800
71        0.001800
72        0.001800
73        0.003000
74        0.003000
75        0.003000
76        0.001200
77        0.001200
78       -0.003000
79       -0.003000
80        0.001200
81        0.001200
82        0.002400
83        0.002400
84       -0.002400
85       -0.002400
86       -0.004200
87       -0.002400
88       -0.002400
89       -0.004200
90       -0.004800
91       -0.004800
92       -0.003000
93       -0.003000
94       -0.001800
95       -0.001800
96        0.000600
97        0.000600
98        0.001200
99        0.001200
100      -0.003000
101      -0.002400
102      -0.002400
103      -0.002400
104      -0.001200
105      -0.001200
106       0.000000
107       0.000000
108      -0.002400
109      -0.002400
110      -0.004200
111      -0.002400
112      -0.002400
113      -0.003000
114       0.000000
115       0.000000
116      -0.001200
117      -0.003600
118      -0.003600
119      -0.003000
120      -0.001800
121      -0.001800
122      -0.001200
123      -0.004200
124      -0.004200
125      -0.005400
126      -0.005400
127      -0.001200
128      -0.001200
129       0.004200
130       0.004200
131       0.004200
132       0.004200
133       0.001200
134       0.001200
135       0.001200
136       0.001200
137       0.000600
138      -0.000600
139      -0.001800
140      -0.001800
141      -0.001800
142      -0.001800
143      -0.004800
144      -0.004800
145      -0.007200
146      -0.005400
147      -0.005400
148      -0.004800
149      -0.007200
150      -0.007200
151      -0.004200
152      -0.004200
153      -0.003000
154       0.000600
155      -0.001200
156      -0.001200
157       0.002400
158       0.002400
159       0.004200
160       0.004200
161       0.004200
162       0.003000
163       0.003000
164       0.003000
165       0.000000
166       0.001200
167       0.001200
168      -0.000600
169      -0.000600
170      -0.002400
171      -0.002400
172      -0.000600
173      -0.000600
174      -0.000600
175      -0.001200
176      -0.003600
177      -0.003600
178      -0.004200
179      -0.005400
180      -0.005400
181      -0.004800
182      -0.001800
183      -0.001800
184       0.000000
185      -0.001800
186      -0.001800
187       0.001800
188       0.001800
189      -0.003600
190      -0.003600
191      -0.003000
192      -0.003600
193      -0.004200
194      -0.004200
195      -0.003600
196      -0.003600
197      -0.003000
198      -0.004800
199      -0.004800
200      -0.006600
201      -0.006000
202      -0.000600
203      -0.000600
204       0.001800
205       0.000000
206       0.000000
207       0.001800
208       0.000000
209       0.000000
210      -0.002400
211       0.000600
212       0.000600
213       0.003600
214       0.000600
215       0.000600
216       0.000600
217      -0.001800
218      -0.001200
219      -0.001200
220      -0.002400
221      -0.002400
222      -0.003000
223       0.001200
224       0.000600
225       0.000600
226       0.000600
227      -0.000600
228      -0.004200
229      -0.004200
230      -0.005400
231      -0.007200
232      -0.007200
233      -0.006000
234      -0.006600
235      -0.006600
236      -0.005400
237      -0.005400
238       0.000600
239       0.000600
240       0.000000
241       0.001200
242       0.001200
243       0.001800
244       0.001200
245       0.001200
246       0.001200
247       0.001200
248       0.001200
249      -0.001800
250      -0.001800
251       0.002400
252       0.004200
253       0.004200
254       0.004200
255       0.004200
256       0.001800
257      -0.001200
258      -0.001200
259      -0.003600
260      -0.003000
261      -0.003000
262      -0.002400
263      -0.003000
264      -0.003000
265      -0.003000
266      -0.000600
267      -0.000600
268      -0.001200
269      -0.001200
270      -0.001800
271      -0.001800
272      -0.002400
273      -0.005400
274      -0.005400
275      -0.004200
276      -0.004200
277       0.000000
278       0.000000
279      -0.000600
280       0.003600
281       0.003600
282       0.004200
283       0.004200
284       0.001800
285       0.001800
286       0.003000
287       0.003000
288       0.000600
289       0.000600
290      -0.000600
291      -0.000600
292      -0.003600
293      -0.002400
294      -0.003000
295      -0.003000
296       0.001200
297       0.000600
298       0.000600
299      -0.001800
300      -0.002400
301      -0.002400
302       0.001200
303       0.001800
304       0.001800
305       0.001800
306      -0.000600
307      -0.003000
308      -0.003000
309       0.000000
310       0.000000
311       0.001200
312       0.001200
313      -0.000600
314      -0.000600
315       0.003600
316       0.002400
317       0.002400
318      -0.001200
319      -0.001200
320      -0.002400
321      -0.002400
322      -0.002400
323      -0.002400
324      -0.005400
325      -0.003000
326       0.000600
327       0.000600
328      -0.001200
329       0.001800
330       0.001800
331       0.002400
332       0.002400
333       0.004200
334       0.004200
335       0.001200
336       0.001200
337      -0.000600
338       0.001200
339       0.001200
340       0.004200
341       0.004800
342       0.004800
343       0.002400
344       0.002400
345       0.003600
346       0.003600
347       0.000600
348       0.000600
349      -0.000600
350      -0.000600
351      -0.001800
352      -0.001800
353       0.001200
354       0.001200
355       0.000600
356       0.001200
357       0.001200
358       0.001800
359       0.001800
360       0.002400
361       0.002400
362       0.000000
363       0.000600
364       0.000600
365       0.001800
366      -0.001800
367      -0.001800
368      -0.001200
369      -0.001200
370      -0.004200
371      -0.004200
372      -0.003000
373      -0.003000
374       0.000600
375       0.001800
376      -0.001200
377      -0.001200
378      -0.001200
379      -0.003000
380      -0.003000
381       0.001200
382       0.000600
383       0.000600
384      -0.001200
385      -0.000600
386      -0.000600
387       0.000600
388      -0.001200
389      -0.001200
390      -0.004800
391      -0.003600
392       0.000600
393       0.000600
394       0.000600
395      -0.001800
396       0.004200
397       0.004200
398       0.003600
399      -0.001200
400      -0.001200
401      -0.002400
402       0.000000
403       0.000000
404      -0.001800
405      -0.001800
406      -0.003000
407      -0.003000
408      -0.001800
409      -0.002400
410      -0.002400
411      -0.001800
412      -0.001800
413       0.000600
414       0.000600
415      -0.000600
416      -0.004200
417      -0.004200
418      -0.004200
419      -0.000600
420      -0.000600
421       0.000600
422       0.000600
423      -0.002400
424      -0.001200
425      -0.001200
426      -0.001200
427       0.000000
428       0.000000
429      -0.001200
430      -0.001200
431       0.000600
432       0.001800
433       0.001800
434       0.001200
435       0.000600
436       0.000600
437       0.001200
438       0.000000
439       0.000000
440       0.000000
441      -0.001800
442      -0.001800
443      -0.000600
444      -0.003000
445      -0.003000
446      -0.003600
447      -0.000600
448      -0.000600
449      -0.001200
450      -0.002400
451      -0.002400
452      -0.003600
453      -0.003600
454      -0.000600
455      -0.000600
456      -0.001800
457      -0.003000
458      -0.003000
459      -0.003000
460      -0.003000
461      -0.000600
462      -0.000600
463      -0.004800
464      -0.004800
465      -0.001800
466      -0.001800
467      -0.002400
468      -0.002400
469      -0.001200
470      -0.001200
471      -0.001800
472       0.001200
473       0.001200
474       0.001200
475       0.003000
476       0.003000
477       0.003600
478       0.002400
479       0.002400
480       0.003000
481       0.002400
482       0.002400
483       0.004800
484       0.004800
485       0.005400
486       0.005400
487       0.004200
488       0.004200
489       0.000600
490       0.000600
491       0.000600
492       0.001200
493       0.000000
494       0.000000
495       0.004200
496       0.001800
497       0.001800
498      -0.003000
499      -0.000600
500      -0.000600
501      -0.001800
502      -0.001800
503       0.000000
504       0.000000
505      -0.001200
506      -0.001200
507      -0.003000
508      -0.003000
509      -0.004800
510      -0.003600
511      -0.003600
512      -0.000600
513      -0.000600
514       0.000000
515      -0.001200
516      -0.001200
517      -0.001200
518      -0.001800
519      -0.001800
520      -0.001800
521      -0.002400
522      -0.001200
523      -0.001200
524      -0.004200
525      -0.005400
526      -0.005400
527      -0.003000
528      -0.000600
529      -0.000600
530       0.003000
531       0.003000
532       0.001800
533       0.002400
534       0.002400
535       0.001800
536       0.001800
537      -0.001200
538      -0.001200
539      -0.002400
540      -0.002400
541       0.001200
542       0.001800
543       0.001800
544       0.004800
545       0.004800
546       0.004800
547       0.002400
548       0.002400
549       0.000000
550       0.000000
551      -0.001800
552      -0.002400
553      -0.002400
554       0.000000
555       0.000000
556       0.000000
557      -0.001800
558      -0.001800
559       0.000600
560       0.000600
561       0.003600
562       0.001800
563       0.001800
564       0.001200
565       0.000000
566       0.000000
567      -0.000600
568      -0.000600
569      -0.000600
570       0.003000
571       0.000600
572       0.000600
573       0.002400
574       0.002400
575       0.003000
576       0.003000
577       0.001800
578       0.000000
579       0.000000
580       0.000600
581       0.000600
582      -0.002400
583      -0.003000
584      -0.003600
585      -0.003600
586      -0.000600
587      -0.000600
588      -0.000600
589      -0.000600
590      -0.002400
591      -0.002400
592      -0.001200
593      -0.001200
594      -0.001200
595       0.001200
596       0.001200
597       0.001200
598       0.000600
599      -0.001200
600      -0.001200
601       0.000000
602      -0.000600
603      -0.000600
604       0.000600
605      -0.001800
606      -0.001800
607      -0.001800
608       0.000000
609      -0.003600
610      -0.003600
611      -0.004200
612      -0.002400
613      -0.002400
614      -0.003000
615      -0.003000
616      -0.001200
617      -0.003600
618      -0.003600
619      -0.004800
620      -0.004800
621      -0.004200
622      -0.004200
623      -0.003600
624      -0.003600
625      -0.003600
626      -0.001800
627      -0.001800
628       0.001200
629       0.001200
630      -0.001200
631      -0.001200
632      -0.001200
633       0.001200
634       0.000000
635       0.000000
636       0.000000
637       0.003000
638       0.003000
639       0.001200
640       0.001200
641      -0.001200
642      -0.001200
643       0.001800
644       0.000600
645       0.000600
646      -0.004200
647      -0.004200
648      -0.003000
649      -0.002400
650      -0.003000
651      -0.003000
652      -0.003000
653      -0.003000
654      -0.003000
655      -0.001800
656      -0.001200
657      -0.001200
658       0.001800
659       0.001800
660       0.001200
661       0.001200
662       0.001200
663       0.001800
664       0.000600
665       0.002400
666       0.002400
667       0.002400
668       0.002400
669       0.003600
670      -0.000600
671      -0.000600
672       0.000000
673       0.000000
674      -0.003600
675      -0.001800
676       0.000600
677       0.000600
678       0.000000
679      -0.001800
680      -0.001800
681      -0.004200
682      -0.004200
683      -0.000600
684      -0.000600
685      -0.000600
686       0.000600
687       0.000600
688       0.004200
689       0.002400
690       0.002400
691       0.000600
692       0.000600
693       0.000000
694       0.000000
695       0.001200
696       0.001200
697       0.004800
698       0.004800
699       0.001800
700       0.001800
701      -0.001200
702      -0.001200
703      -0.001200
704       0.002400
705       0.002400
706       0.003600
707       0.003000
708       0.003000
709      -0.000600
710      -0.000600
711      -0.003000
712      -0.000600
713       0.000000
714       0.000000
715      -0.000600
716      -0.001800
717      -0.001800
718      -0.000600
719       0.001200
720       0.001200
721      -0.000600
722      -0.000600
723      -0.001800
724      -0.001800
725      -0.001200
726      -0.001800
727      -0.001800
728      -0.003000
729      -0.004200
730      -0.004200
731      -0.003600
732      -0.003600
733      -0.002400
734       0.000000
735       0.001800
736       0.001800
737       0.000600
738       0.000600
739       0.000600
740       0.000000
741       0.000000
742       0.000000
743       0.000600
744       0.001200
745       0.001200
746       0.003000
747      -0.000600
748      -0.000600
749      -0.003000
750      -0.001800
751      -0.001800
752       0.000600
753       0.000600
754      -0.000600
755       0.000000
756      -0.002400
757      -0.002400
758      -0.002400
759      -0.003000
760      -0.003600
761      -0.003600
762      -0.002400
763      -0.002400
764      -0.000600
765      -0.000600
766      -0.001200
767      -0.001200
768       0.000600
769       0.000600
770       0.001200
771       0.003600
772       0.003600
773       0.001200
774       0.001200
775       0.000000
776       0.000000
777       0.000000
778       0.004200
779       0.004200
780      -0.000600
781      -0.001200
782      -0.001200
783      -0.001200
784      -0.003600
785      -0.003600
786       0.001800
787       0.001800
788       0.003000
789       0.003000
790       0.002400
791       0.002400
792       0.001200
793       0.000600
794      -0.001200
795      -0.003000
796      -0.000600
797      -0.000600
798       0.001200
799       0.001200
800       0.001800
801       0.001800
802      -0.000600
803       0.001800
804       0.001800
805       0.004200
806       0.004200
807       0.004800
808       0.000000
809       0.000000
810       0.000600
811       0.000600
812       0.003600
813       0.003600
814       0.004800
815       0.001200
816       0.001200
817       0.000600
818       0.000600
819       0.000600
820       0.000600
821      -0.001800
822      -0.001800
823      -0.006600
824      -0.004800
825      -0.004200
826      -0.004200
827      -0.003600
828      -0.004800
829      -0.004800
830      -0.004200
831      -0.004200
832      -0.005400
833       0.002400
834       0.001200
835       0.001200
836       0.003600
837       0.003600
838       0.001200
839       0.001200
840       0.004800
841       0.001800
842       0.001800
843      -0.001200
844       0.001200
845       0.000000
846       0.000000
847       0.001200
848       0.003000
849       0.003000
850       0.004200
851       0.004200
852       0.003000
853       0.003000
854       0.002400
855       0.002400
856       0.004800
857       0.001800
858      -0.000600
859      -0.000600
860       0.000600
861       0.000600
862      -0.000600
863      -0.000600
864      -0.000600
865      -0.001200
866       0.000000
867       0.000000
868      -0.003600
869      -0.003600
870      -0.006600
871      -0.006600
872      -0.006000
873      -0.006000
874      -0.002400
875       0.000600
876       0.000600
877       0.001200
878       0.001800
879       0.001800
880       0.001200
881       0.001200
882       0.001200
883      -0.000600
884      -0.000600
885       0.003000
886       0.003000
887       0.003000
888       0.003000
889       0.003600
890       0.000600
891       0.000600
892      -0.000600
893      -0.000600
894      -0.002400
895      -0.003000
896      -0.003000
897      -0.006000
898      -0.006000
899      -0.003000
900      -0.000600
901      -0.000600
902       0.001800
903       0.001800
904       0.001800
905      -0.001200
906      -0.006000
907      -0.006000
908      -0.005400
909       0.000600
910       0.000600
911       0.000000
912      -0.000600
913      -0.000600
914       0.000600
915       0.000000
916       0.000000
917      -0.001200
918       0.000600
919       0.000600
920       0.001200
921      -0.001200
922      -0.001200
923       0.000600
924       0.000600
925       0.000600
926       0.003000
927       0.003000
928       0.000600
929       0.000600
930       0.001200
931      -0.001200
932      -0.001200
933       0.000000
934      -0.002400
935      -0.002400
936      -0.003000
937       0.001200
938       0.001200
939       0.000600
940       0.000600
941       0.002400
942       0.002400
943       0.004200
944       0.004200
945       0.000000
946       0.000000
947      -0.001800
948       0.000000
949       0.000000
950       0.001200
951       0.000600
952       0.000600
953       0.001200
954       0.001200
955       0.001200
956       0.000600
957       0.000600
958       0.002400
959       0.002400
960       0.001800
961       0.002400
962       0.002400
963       0.000600
964       0.000600
965      -0.001800
966      -0.001800
967       0.000600
968       0.002400
969       0.002400
970       0.001200
971      -0.004200
972      -0.004200
973      -0.004200
974      -0.004200
975      -0.002400
976      -0.002400
977      -0.003000
978      -0.000600
979      -0.000600
980      -0.000600
981      -0.001800
982      -0.000600
983      -0.001800
984      -0.001800
985       0.001200
986       0.001800
987       0.001800
988       0.001800
989       0.000600
990       0.000600
991      -0.001200
992      -0.001200
993      -0.003000
994      -0.003000
995      -0.000600
996      -0.000600
997      -0.002400
998      -0.003000
999      -0.003000
1000     -0.001800
1001     -0.003600
1002     -0.003600
1003     -0.004800
1004     -0.003000
1005     -0.003000
1006      0.001800
1007      0.003600
1008      0.003600
1009      0.003000
1010      0.003000
1011      0.001200
1012     -0.001200
1013      0.000600
1014      0.000600
1015      0.001200
1016      0.003600
1017      0.003600
1018      0.000000
1019      0.000000
1020     -0.002400
1021      0.000000
1022      0.001200
1023      0.001200
1024     -0.002400
1025     -0.002400
1026     -0.002400
1027     -0.005400
1028     -0.005400
1029     -0.005400
1030     -0.002400
1031     -0.002400
1032      0.000000
1033      0.000000
1034      0.001200
1035      0.001200
1036     -0.003600
1037     -0.004800
1038     -0.004800
1039     -0.006000
1040     -0.006000
1041     -0.003600
1042     -0.000600
1043     -0.000600
1044     -0.000600
1045     -0.003000
1046     -0.005400
1047     -0.005400
1048     -0.005400
1049     -0.003000
1050     -0.003000
1051      0.001200
1052      0.001200
1053      0.002400
1054      0.002400
1055      0.000000
1056     -0.002400
1057     -0.002400
1058      0.000600
1059      0.000600
1060      0.004200
1061      0.004200
1062      0.004200
1063     -0.001200
1064     -0.001200
1065     -0.001800
1066     -0.001800
1067      0.000000
1068      0.000000
1069      0.000600
1070      0.000600
1071     -0.001200
1072     -0.001200
1073     -0.006000
1074     -0.006000
1075     -0.005400
1076     -0.005400
1077      0.000600
1078     -0.001200
1079     -0.001200
1080     -0.003600
1081     -0.001800
1082     -0.001800
1083     -0.001800
1084     -0.001800
1085     -0.003000
1086      0.001200
1087      0.001200
1088     -0.001800
1089     -0.001800
1090     -0.001800
1091      0.000600
1092      0.004200
1093      0.004200
1094      0.003000
1095      0.003000
1096      0.001800
1097      0.001800
1098      0.000000
1099      0.000000
1100      0.000000
1101      0.000000
1102     -0.003600
1103     -0.003600
1104     -0.001800
1105     -0.001800
1106     -0.002400
1107     -0.002400
1108     -0.001800
1109     -0.003000
1110     -0.004800
1111     -0.004800
1112     -0.005400
1113     -0.002400
1114     -0.002400
1115     -0.001800
1116     -0.003600
1117     -0.003600
1118     -0.003600
1119     -0.003600
1120     -0.006000
1121     -0.006000
1122     -0.006600
1123     -0.006000
1124     -0.006000
1125     -0.004200
1126     -0.004200
1127      0.000000
1128      0.003000
1129      0.002400
1130      0.002400
1131      0.002400
1132     -0.001200
1133     -0.001200
1134     -0.003600
1135     -0.001200
1136      0.003000
1137      0.003000
1138      0.003000
1139      0.003000
1140      0.001800
1141      0.001800
1142      0.001800
1143      0.001800
1144     -0.000600
1145     -0.000600
1146     -0.000600
1147      0.000600
1148      0.000600
1149      0.000600
1150     -0.000600
1151     -0.000600
1152      0.000000
1153      0.000000
1154      0.002400
1155      0.002400
1156      0.001800
1157      0.001800
1158      0.000000
1159      0.000000
1160      0.000600
1161      0.003000
1162      0.003000
1163      0.003000
1164      0.004200
1165      0.004200
1166     -0.001200
1167     -0.001200
1168     -0.002400
1169     -0.002400
1170     -0.002400
1171     -0.002400
1172     -0.002400
1173     -0.003600
1174     -0.005400
1175     -0.005400
1176     -0.004800
1177     -0.004800
1178     -0.003000
1179     -0.003600
1180     -0.003600
1181     -0.000600
1182     -0.001200
1183     -0.001200
1184     -0.001200
1185     -0.001200
1186     -0.001200
1187     -0.001800
1188      0.000000
1189      0.000000
1190     -0.001800
1191     -0.001800
1192     -0.001800
1193     -0.001200
1194     -0.001200
1195     -0.001200
1196     -0.003600
1197     -0.003600
1198     -0.002400
1199     -0.002400
1200     -0.003600
1201     -0.003600
1202     -0.003000
1203     -0.003000
1204     -0.001800
1205     -0.003000
1206     -0.003000
1207     -0.003000
1208     -0.003000
1209     -0.001200
1210     -0.001200
1211     -0.003000
1212     -0.003600
1213     -0.000600
1214     -0.000600
1215      0.001200
1216      0.001200
1217     -0.001200
1218     -0.001800
1219     -0.001800
1220     -0.001800
1221     -0.000600
1222     -0.000600
1223     -0.001200
1224      0.000000
1225      0.000000
1226      0.001200
1227     -0.001800
1228     -0.001800
1229     -0.006000
1230     -0.006000
1231     -0.002400
1232     -0.003000
1233     -0.004200
1234     -0.004200
1235     -0.001200
1236     -0.001200
1237     -0.001200
1238     -0.005400
1239     -0.007800
1240     -0.007800
1241     -0.008400
1242     -0.008400
1243     -0.007800
1244     -0.013800
1245     -0.013800
1246     -0.015600
1247     -0.015600
1248     -0.020400
1249     -0.020400
1250     -0.019200
1251     -0.009600
1252     -0.009600
1253     -0.009600
1254     -0.006600
1255     -0.003600
1256     -0.003600
1257     -0.013200
1258     -0.018000
1259     -0.018000
1260     -0.018000
1261     -0.011400
1262     -0.013200
1263     -0.013200
1264     -0.004200
1265     -0.008400
1266     -0.008400
1267     -0.004200
1268     -0.001200
1269     -0.001200
1270     -0.003000
1271     -0.003000
1272     -0.009000
1273     -0.014400
1274     -0.014400
1275     -0.007200
1276      0.003000
1277      0.006600
1278      0.003000
1279      0.003000
1280     -0.003600
1281     -0.003600
1282     -0.003600
1283      0.000600
1284     -0.001800
1285     -0.001800
1286      0.006000
1287      0.006000
1288     -0.024600
1289     -0.006600
1290     -0.003600
1291     -0.003600
1292      0.005400
1293      0.001800
1294      0.001800
1295      0.003000
1296      0.003000
1297     -0.012600
1298     -0.012600
1299     -0.003600
1300     -0.003600
1301     -0.010800
1302      0.009000
1303     -0.004800
1304     -0.004800
1305      0.008400
1306      0.007800
1307      0.007800
1308      0.025100
1309      0.016200
1310      0.016200
1311      0.013200
1312      0.013200
1313      0.000600
1314      0.011400
1315      0.011400
1316      0.011400
1317      0.005400
1318      0.005400
1319      0.010800
1320      0.012600
1321      0.012600
1322      0.012600
1323      0.012600
1324      0.008400
1325      0.010800
1326      0.010800
1327      0.007200
1328      0.007200
1329      0.014400
1330      0.014400
1331      0.015000
1332      0.015000
1333      0.015000
1334      0.034700
1335      0.034700
1336      0.029900
1337      0.019800
1338     -0.001200
1339     -0.001200
1340     -0.003000
1341      0.013200
1342      0.013200
1343      0.025100
1344      0.025100
1345      0.023400
1346      0.024000
1347      0.029900
1348      0.029900
1349      0.040700
1350      0.032300
1351      0.032300
1352      0.031100
1353      0.032900
1354      0.032900
1355      0.016800
1356      0.012000
1357      0.012000
1358      0.018600
1359      0.022800
1360      0.022800
1361      0.031100
1362      0.032900
1363      0.032900
1364      0.018000
1365      0.031700
1366      0.031700
1367      0.024600
1368      0.023400
1369      0.023400
1370      0.029300
1371      0.040700
1372      0.040700
1373      0.028100
1374      0.028100
1375      0.055700
1376      0.055700
1377      0.041900
1378     -0.006000
1379     -0.006000
1380      0.007200
1381      0.007200
1382      0.030500
1383      0.048500
1384      0.035900
1385      0.035900
1386      0.035900
1387      0.026900
1388      0.065300
1389      0.065300
1390      0.059300
1391      0.032900
1392      0.032900
1393     -0.000600
1394     -0.007800
1395     -0.007800
1396      0.032300
1397      0.025100
1398      0.025100
1399      0.025100
1400      0.018600
1401      0.029300
1402      0.039500
1403      0.039500
1404      0.000600
1405      0.000600
1406      0.024600
1407      0.028700
1408      0.029900
1409      0.029900
1410      0.039500
1411      0.039500
1412      0.034100
1413      0.034100
1414      0.033500
1415      0.041900
1416      0.041900
1417      0.040700
1418      0.022200
1419      0.022200
1420      0.016200
1421      0.016200
1422      0.026900
1423      0.021000
1424      0.022200
1425      0.022200
1426      0.022200
1427      0.025800
1428      0.019800
1429      0.019800
1430      0.013200
1431      0.028700
1432      0.028700
1433      0.020400
1434      0.020400
1435      0.027500
1436      0.030500
1437      0.021600
1438      0.021600
1439      0.020400
1440      0.020400
1441      0.030500
1442      0.030500
1443      0.019200
1444      0.026400
1445      0.026400
1446      0.019200
1447      0.019200
1448      0.016800
1449     -0.007200
1450     -0.007200
1451     -0.005400
1452      0.012600
1453      0.012600
1454      0.018600
1455      0.018600
1456      0.021000
1457      0.021000
1458      0.021000
1459      0.013200
1460      0.013200
1461      0.020400
1462      0.020400
1463      0.010800
1464      0.004800
1465      0.004800
1466     -0.010200
1467     -0.010200
1468      0.014400
1469      0.010800
1470      0.015600
1471      0.006600
1472      0.006600
1473      0.002400
1474      0.011400
1475      0.011400
1476      0.022800
1477      0.006000
1478      0.006000
1479     -0.016800
1480     -0.010800
1481     -0.010800
1482     -0.004800
1483     -0.004800
1484     -0.006600
1485     -0.008400
1486     -0.008400
1487     -0.016800
1488     -0.016800
1489     -0.010800
1490     -0.028700
1491     -0.028700
1492     -0.011400
1493     -0.011400
1494      0.021000
1495     -0.019200
1496     -0.019200
1497     -0.038900
1498     -0.024000
1499     -0.024000
1500     -0.032300
1501     -0.032300
1502      0.012000
1503     -0.019200
1504     -0.019200
1505     -0.028100
1506     -0.016200
1507     -0.016200
1508     -0.049700
1509     -0.049700
1510     -0.020400
1511     -0.020400
1512     -0.029300
1513     -0.029300
1514     -0.029300
1515     -0.034700
1516     -0.034700
1517     -0.030500
1518     -0.020400
1519     -0.020400
1520     -0.038300
1521     -0.044300
1522     -0.044300
1523     -0.021600
1524     -0.021600
1525     -0.031100
1526     -0.026400
1527     -0.036500
1528     -0.036500
1529     -0.036500
1530     -0.028700
1531     -0.028700
1532     -0.031700
1533     -0.044300
1534     -0.044300
1535     -0.040100
1536     -0.040100
1537     -0.029900
1538     -0.035300
1539     -0.035300
1540     -0.035300
1541     -0.028100
1542     -0.029300
1543     -0.043700
1544     -0.037100
1545     -0.047900
1546     -0.047900
1547     -0.045500
1548     -0.040100
1549     -0.040100
1550     -0.025800
1551     -0.025800
1552     -0.034100
1553     -0.034100
1554     -0.034700
1555     -0.034700
1556     -0.029300
1557     -0.029300
1558     -0.037700
1559     -0.037700
1560     -0.056900
1561     -0.044900
1562     -0.032900
1563     -0.032900
1564     -0.037100
1565     -0.032300
1566     -0.032300
1567     -0.028100
1568     -0.028100
1569     -0.029900
1570     -0.037100
1571     -0.032300
1572     -0.032300
1573     -0.022200
1574     -0.041900
1575     -0.041900
1576     -0.031100
1577     -0.031100
1578     -0.019800
1579     -0.019800
1580     -0.022200
1581     -0.023400
1582     -0.023400
1583     -0.027500
1584     -0.027500
1585     -0.037700
1586     -0.029300
1587     -0.021600
1588     -0.021600
1589     -0.026900
1590     -0.026400
1591     -0.026400
1592     -0.034100
1593     -0.034100
1594     -0.025100
1595     -0.025100
1596     -0.010800
1597     -0.015600
1598     -0.015600
1599     -0.019200
1600     -0.019200
1601     -0.019200
1602     -0.019200
1603     -0.016200
1604     -0.016200
1605     -0.019800
1606     -0.034100
1607     -0.034100
1608     -0.034100
1609     -0.019800
1610     -0.017400
1611     -0.017400
1612     -0.017400
1613     -0.015000
1614     -0.015000
1615     -0.014400
1616     -0.018000
1617     -0.018000
1618     -0.017400
1619     -0.017400
1620     -0.033500
1621     -0.033500
1622     -0.033500
1623     -0.021600
1624     -0.003000
1625     -0.003000
1626     -0.003600
1627     -0.004200
1628     -0.012600
1629     -0.012600
1630     -0.009600
1631     -0.010800
1632     -0.010800
1633     -0.007200
1634      0.007200
1635      0.007200
1636     -0.035900
1637     -0.035900
1638     -0.018000
1639     -0.025100
1640     -0.025100
1641      0.013200
1642      0.013200
1643      0.010800
1644      0.019200
1645      0.019200
1646     -0.010200
1647     -0.033500
1648     -0.033500
1649     -0.006000
1650     -0.006000
1651     -0.007200
1652     -0.007200
1653     -0.001800
1654     -0.001800
1655     -0.024600
1656     -0.024600
1657      0.027500
1658      0.027500
1659      0.059900
1660      0.045500
1661      0.060500
1662      0.060500
1663      0.060500
1664      0.021000
1665     -0.007800
1666     -0.007800
1667      0.004200
1668      0.004200
1669      0.004200
1670      0.004200
1671      0.006600
1672      0.006600
1673      0.007200
1674      0.028100
1675      0.007200
1676      0.007200
1677      0.013800
1678      0.010800
1679      0.010800
1680      0.022800
1681      0.022800
1682      0.031100
1683      0.030500
1684      0.030500
1685      0.034100
1686      0.022200
1687      0.034700
1688      0.034700
1689      0.034700
1690      0.036500
1691      0.030500
1692      0.030500
1693      0.036500
1694      0.036500
1695      0.033500
1696      0.033500
1697      0.040100
1698      0.040100
1699      0.031100
1700      0.028700
1701      0.028700
1702      0.019800
1703      0.010200
1704      0.010200
1705      0.022200
1706      0.034700
1707      0.034700
1708      0.027500
1709      0.042500
1710      0.042500
1711      0.034700
1712      0.025800
1713      0.025800
1714      0.028100
1715      0.025100
1716      0.025100
1717      0.025100
1718      0.031700
1719      0.031700
1720      0.039500
1721      0.039500
1722      0.048500
1723      0.048500
1724      0.047300
1725      0.049700
1726      0.049700
1727      0.036500
1728      0.031100
1729      0.031100
1730      0.032900
1731      0.019200
1732      0.025100
1733      0.038900
1734      0.038900
1735      0.041900
1736      0.029900
1737      0.029900
1738      0.024600
1739      0.024600
1740      0.035900
1741      0.035900
1742      0.040700
1743      0.040700
1744      0.040700
1745      0.025800
1746      0.025800
1747      0.022200
1748      0.026900
1749      0.030500
1750      0.030500
1751      0.041900
1752      0.034700
1753      0.034700
1754      0.031700
1755      0.031700
1756      0.025100
1757      0.012000
1758      0.010800
1759      0.010800
1760      0.016800
1761      0.016800
1762      0.020400
1763      0.020400
1764      0.017400
1765      0.017400
1766      0.028100
1767      0.034100
1768      0.034100
1769      0.026900
1770      0.026900
1771      0.018000
1772      0.018000
1773      0.016200
1774      0.016200
1775     -0.004200
1776     -0.004200
1777      0.018600
1778      0.018600
1779      0.021600
1780      0.021600
1781      0.023400
1782      0.020400
1783      0.019800
1784      0.019800
1785      0.021600
1786      0.016200
1787      0.016800
1788      0.016800
1789      0.014400
1790      0.014400
1791      0.013200
1792      0.013200
1793      0.014400
1794      0.014400
1795      0.010200
1796      0.010200
1797      0.009000
1798      0.004200
1799      0.004200
1800     -0.007200
1801      0.001800
1802      0.001800
1803      0.001800
1804      0.025100
1805      0.025100
1806     -0.004200
1807      0.000000
1808      0.000000
1809      0.002400
1810     -0.009600
1811     -0.009600
1812     -0.008400
1813     -0.012000
1814     -0.012000
1815     -0.005400
1816     -0.005400
1817     -0.017400
1818     -0.017400
1819     -0.010200
1820     -0.007800
1821     -0.007800
1822     -0.021000
1823     -0.005400
1824     -0.005400
1825     -0.015000
1826     -0.013200
1827     -0.013200
1828     -0.022200
1829     -0.036500
1830     -0.036500
1831     -0.021600
1832     -0.039500
1833     -0.039500
1834     -0.028100
1835     -0.028100
1836     -0.055700
1837     -0.055700
1838     -0.038300
1839     -0.036500
1840     -0.036500
1841     -0.024600
1842     -0.018600
1843     -0.018600
1844     -0.010200
1845     -0.010200
1846     -0.028700
1847     -0.028700
1848     -0.018600
1849     -0.018600
1850     -0.018000
1851     -0.055100
1852     -0.055100
1853     -0.019800
1854     -0.019800
1855     -0.031700
1856     -0.031700
1857     -0.029900
1858     -0.029900
1859     -0.024600
1860     -0.028700
1861     -0.026900
1862     -0.026900
1863     -0.032900
1864     -0.032300
1865     -0.032300
1866     -0.031100
1867     -0.041900
1868     -0.041900
1869     -0.034700
1870     -0.029900
1871     -0.029900
1872     -0.016200
1873     -0.016200
1874     -0.027500
1875     -0.027500
1876     -0.036500
1877     -0.031700
1878     -0.031700
1879     -0.024000
1880     -0.032300
1881     -0.032300
1882     -0.030500
1883     -0.030500
1884     -0.022200
1885     -0.022200
1886     -0.043100
1887     -0.058100
1888     -0.058100
1889     -0.040700
1890     -0.034700
1891     -0.034700
1892     -0.041300
1893     -0.041300
1894     -0.034100
1895     -0.034100
1896     -0.034100
1897     -0.025100
1898     -0.025100
1899     -0.027500
1900     -0.031700
1901     -0.035300
1902     -0.025800
1903     -0.032900
1904     -0.032900
1905     -0.040700
1906     -0.040700
1907     -0.045500
1908     -0.055100
1909     -0.055100
1910     -0.047300
1911     -0.028700
1912     -0.028700
1913     -0.037700
1914     -0.037700
1915     -0.037700
1916     -0.035900
1917     -0.035900
1918     -0.031100
1919     -0.031100
1920     -0.031100
1921     -0.041300
1922     -0.047300
1923     -0.047300
1924     -0.037100
1925     -0.026400
1926     -0.026400
1927     -0.044300
1928     -0.031100
1929     -0.031100
1930     -0.032300
1931     -0.032300
1932     -0.038300
1933     -0.025800
1934     -0.025800
1935     -0.025800
1936     -0.021000
1937     -0.021000
1938     -0.024000
1939     -0.024000
1940     -0.024000
1941     -0.020400
1942     -0.020400
1943     -0.025100
1944     -0.034100
1945     -0.034100
1946     -0.031700
1947     -0.034100
1948     -0.016800
1949     -0.016800
1950     -0.016800
1951     -0.022800
1952     -0.038300
1953     -0.038300
1954     -0.024000
1955     -0.018600
1956     -0.018600
1957     -0.015600
1958     -0.013200
1959     -0.013200
1960     -0.019200
1961     -0.019200
1962     -0.016800
1963     -0.016800
1964     -0.028700
1965     -0.023400
1966     -0.023400
1967     -0.025800
1968     -0.018000
1969     -0.018000
1970     -0.018600
1971     -0.016800
1972     -0.016800
1973     -0.013800
1974     -0.014400
1975     -0.014400
1976     -0.029900
1977     -0.034100
1978     -0.034100
1979     -0.018600
1980     -0.018600
1981     -0.016200
1982     -0.016800
1983     -0.016800
1984     -0.018600
1985     -0.014400
1986     -0.014400
1987     -0.001800
1988     -0.001200
1989      0.000000
1990      0.000000
1991      0.002400
1992      0.002400
1993     -0.003000
1994     -0.003000
1995     -0.010200
1996     -0.010200
1997     -0.010200
1998     -0.012600
1999     -0.012600
2000      0.018000
2001      0.018000
2002      0.003000
2003      0.003000
2004      0.009000
2005      0.006600
2006      0.006600
2007      0.006600
2008     -0.016800
2009     -0.016200
2010     -0.016200
2011     -0.006600
2012     -0.006600
2013      0.000600
2014      0.001200
2015      0.001200
2016     -0.041300
2017      0.037100
2018      0.037100
2019      0.024600
2020      0.015000
2021      0.015000
2022      0.029900
2023      0.029900
2024     -0.041900
2025      0.019800
2026      0.013800
2027      0.013800
2028      0.013800
2029      0.020400
2030      0.020400
2031      0.022200
2032      0.022200
2033      0.022200
2034     -0.006600
2035     -0.006600
2036      0.010800
2037      0.010800
2038      0.024000
2039      0.024000
2040      0.036500
2041      0.036500
2042      0.035300
2043      0.037700
2044      0.031100
2045      0.032900
2046      0.032300
2047      0.032300
2048      0.032300
2049      0.037100
2050      0.035300
2051      0.035300
2052      0.043700
2053      0.043100
2054      0.043100
2055      0.037100
2056      0.026900
2057      0.026900
2058      0.016800
2059      0.008400
2060      0.008400
2061      0.041300
2062      0.042500
2063      0.042500
2064      0.038900
2065      0.038900
2066      0.041300
2067      0.046100
2068      0.046100
2069      0.029300
2070      0.012000
2071      0.019800
2072      0.019800
2073      0.035900
2074      0.035900
2075      0.040700
2076      0.038900
2077      0.038900
2078      0.034100
2079      0.038300
2080      0.038300
2081      0.049700
2082      0.046700
2083      0.032300
2084      0.032300
2085      0.013800
2086      0.013800
2087      0.016200
2088      0.016200
2089      0.023400
2090      0.027500
2091      0.027500
2092      0.002400
2093      0.006600
2094      0.006600
2095      0.021000
2096      0.021600
2097      0.021600
2098      0.038300
2099      0.015000
2100      0.017400
2101      0.029300
2102      0.029300
2103      0.022800
2104      0.022800
2105      0.028100
2106      0.024000
2107      0.019200
2108      0.019200
2109      0.015000
2110      0.015000
2111      0.009000
2112      0.009000
2113      0.012000
2114      0.015600
2115      0.015600
2116      0.023400
2117      0.021000
2118      0.021000
2119      0.007200
2120      0.005400
2121      0.005400
2122      0.012000
2123      0.014400
2124      0.014400
2125      0.013200
2126      0.001800
2127      0.001800
2128      0.011400
2129      0.011400
2130      0.013800
2131      0.013800
2132      0.020400
2133      0.020400
2134      0.029300
2135      0.029300
2136      0.020400
2137      0.020400
2138      0.003000
2139     -0.001800
2140      0.004200
2141     -0.012000
2142     -0.012000
2143     -0.004800
2144     -0.004800
2145     -0.007200
2146     -0.003600
2147     -0.003600
2148     -0.010800
2149     -0.009600
2150     -0.009600
2151     -0.009600
2152     -0.017400
2153     -0.017400
2154     -0.003000
2155     -0.015600
2156     -0.015600
2157     -0.014400
2158     -0.014400
2159     -0.019800
2160     -0.019800
2161     -0.033500
2162     -0.020400
2163     -0.020400
2164     -0.044900
2165     -0.044900
2166     -0.044900
2167     -0.038900
2168     -0.038900
2169     -0.049700
2170     -0.035300
2171     -0.035300
2172     -0.038900
2173     -0.038900
2174     -0.022200
2175     -0.022200
2176     -0.030500
2177     -0.030500
2178     -0.009000
2179     -0.032300
2180     -0.032300
2181     -0.029900
2182     -0.025800
2183     -0.025800
2184     -0.077200
2185     -0.032300
2186     -0.032300
2187     -0.034700
2188     -0.034700
2189     -0.025800
2190     -0.025800
2191     -0.031100
2192     -0.023400
2193     -0.023400
2194     -0.034100
2195     -0.026900
2196     -0.016800
2197     -0.016800
2198     -0.016800
2199     -0.035300
2200     -0.040100
2201     -0.040100
2202     -0.037100
2203     -0.032300
2204     -0.032300
2205     -0.028700
2206     -0.044300
2207     -0.044300
2208     -0.027500
2209     -0.027500
2210     -0.032900
2211     -0.032900
2212     -0.025100
2213     -0.034100
2214     -0.034100
2215     -0.042500
2216     -0.052700
2217     -0.052700
2218     -0.026900
2219     -0.037100
2220     -0.037100
2221     -0.031100
2222     -0.018000
2223     -0.018000
2224     -0.029300
2225     -0.029300
2226     -0.044900
2227     -0.044900
2228     -0.051500
2229     -0.041900
2230     -0.036500
2231     -0.031700
2232     -0.031700
2233     -0.032300
2234     -0.032300
2235     -0.041300
2236     -0.041300
2237     -0.029300
2238     -0.042500
2239     -0.042500
2240     -0.042500
2241     -0.038900
2242     -0.038900
2243     -0.046700
2244     -0.045500
2245     -0.045500
2246     -0.041300
2247     -0.041300
2248     -0.034700
2249     -0.034700
2250     -0.037100
2251     -0.037100
2252     -0.044300
2253     -0.044300
2254     -0.053300
2255     -0.053300
2256     -0.049700
2257     -0.040100
2258     -0.040100
2259     -0.025100
2260     -0.037700
2261     -0.037700
2262     -0.032300
2263     -0.028700
2264     -0.028700
2265     -0.039500
2266     -0.057500
2267     -0.057500
2268     -0.046700
2269     -0.046700
2270     -0.028100
2271     -0.037700
2272     -0.035900
2273     -0.035900
2274     -0.031100
2275     -0.028100
2276     -0.028100
2277     -0.034100
2278     -0.039500
2279     -0.039500
2280     -0.026400
2281     -0.044900
2282     -0.044900
2283     -0.032300
2284     -0.027500
2285     -0.027500
2286     -0.024600
2287     -0.032900
2288     -0.032900
2289     -0.026400
2290     -0.036500
2291     -0.036500
2292     -0.040100
2293     -0.028100
2294     -0.028100
2295     -0.024600
2296     -0.025100
2297     -0.025100
2298     -0.026400
2299     -0.026400
2300     -0.035900
2301     -0.022800
2302     -0.022800
2303     -0.025100
2304     -0.025100
2305     -0.026400
2306     -0.021600
2307     -0.021600
2308     -0.024000
2309     -0.027500
2310     -0.027500
2311     -0.032300
2312     -0.032300
2313     -0.024600
2314     -0.025800
2315     -0.022800
2316     -0.022800
2317      0.002400
2318      0.002400
2319     -0.002400
2320     -0.013800
2321     -0.013800
2322     -0.024600
2323     -0.024600
2324     -0.034100
2325     -0.034100
2326     -0.016200
2327     -0.019800
2328     -0.019800
2329     -0.020400
2330     -0.020400
2331     -0.015600
2332     -0.015600
2333      0.015600
2334      0.015600
2335     -0.004800
2336      0.014400
2337      0.014400
2338      0.044300
2339     -0.034100
2340     -0.034100
2341     -0.022200
2342     -0.006600
2343     -0.006600
2344     -0.001200
2345     -0.003600
2346      0.007200
2347      0.007200
2348      0.018000
2349      0.004800
2350      0.004800
2351     -0.006600
2352     -0.002400
2353     -0.002400
2354     -0.004800
2355      0.003000
2356      0.003000
2357     -0.007800
2358     -0.005400
2359     -0.005400
2360     -0.008400
2361     -0.004800
2362     -0.004800
2363      0.001200
2364      0.001200
2365     -0.006000
2366     -0.006000
2367      0.002400
2368      0.005400
2369      0.005400
2370     -0.003000
2371      0.001200
2372      0.001200
2373      0.011400
2374      0.013200
2375      0.013200
2376      0.008400
2377      0.013200
2378      0.013200
2379      0.002400
2380      0.002400
2381      0.006000
2382      0.005400
2383      0.020400
2384      0.020400
2385      0.016200
2386      0.016200
2387      0.016200
2388      0.029900
2389      0.018600
2390      0.018600
2391      0.027500
2392      0.026400
2393      0.026400
2394      0.022800
2395      0.009000
2396      0.009000
2397      0.006600
2398      0.012000
2399      0.035300
2400      0.035300
2401      0.035300
2402      0.035300
2403      0.034100
2404      0.016800
2405      0.016800
2406      0.029900
2407      0.029900
2408      0.038300
2409      0.038300
2410      0.038900
2411      0.044300
2412      0.031700
2413      0.011400
2414      0.011400
2415      0.024000
2416      0.024000
2417      0.028100
2418      0.028100
2419      0.032900
2420      0.032900
2421      0.043700
2422      0.047300
2423      0.038300
2424      0.038300
2425      0.038300
2426      0.041900
2427      0.040100
2428      0.039500
2429      0.039500
2430      0.051500
2431      0.051500
2432      0.017400
2433      0.017400
2434      0.028100
2435      0.024600
2436      0.026900
2437      0.026900
2438      0.028100
2439      0.034700
2440      0.022800
2441      0.022800
2442      0.009600
2443      0.013800
2444      0.013800
2445      0.029900
2446      0.026900
2447      0.026900
2448      0.037100
2449      0.037100
2450      0.036500
2451      0.036500
2452      0.028100
2453      0.025100
2454      0.022800
2455      0.022800
2456      0.008400
2457      0.001200
2458      0.001200
2459      0.016200
2460      0.016200
2461      0.016200
2462      0.023400
2463      0.026900
2464      0.026900
2465      0.027500
2466      0.025100
2467      0.025100
2468      0.039500
2469      0.039500
2470      0.039500
2471      0.022800
2472      0.022800
2473      0.016200
2474      0.026400
2475      0.026400
2476      0.019200
2477      0.026900
2478      0.026900
2479      0.022800
2480      0.022800
2481      0.024600
2482      0.024600
2483      0.024600
2484      0.018000
2485      0.015000
2486      0.015000
2487      0.021600
2488      0.013200
2489      0.013200
2490      0.007200
2491      0.013200
2492      0.013200
2493      0.011400
2494      0.011400
2495      0.011400
2496      0.012600
2497      0.012600
2498      0.013800
2499      0.003000
2500      0.003000
2501      0.006600
2502      0.007800
2503      0.007800
2504      0.017400
2505      0.017400
2506      0.001200
2507      0.001200
2508     -0.006000
2509     -0.006000
2510      0.007800
2511      0.010800
2512      0.010800
2513      0.010800
2514      0.006600
2515      0.004200
2516      0.004200
2517      0.008400
2518      0.008400
2519      0.015600
2520     -0.025100
2521     -0.025100
2522     -0.004200
2523     -0.004200
2524     -0.009600
2525     -0.005400
2526     -0.005400
2527     -0.012600
2528     -0.012600
2529     -0.025100
2530     -0.012000
2531     -0.012000
2532     -0.016800
2533     -0.016800
2534     -0.015000
2535     -0.015000
2536     -0.015000
2537     -0.026900
2538     -0.023400
2539     -0.023400
2540     -0.006600
2541     -0.006600
2542     -0.023400
2543     -0.023400
2544     -0.007800
2545     -0.007800
2546     -0.010800
2547     -0.010800
2548     -0.042500
2549     -0.042500
2550     -0.026400
2551     -0.025800
2552     -0.025800
2553      0.028100
2554     -0.032900
2555     -0.032900
2556     -0.026900
2557     -0.033500
2558     -0.033500
2559     -0.029300
2560     -0.015600
2561     -0.015600
2562     -0.029900
2563     -0.029900
2564     -0.043100
2565     -0.031100
2566     -0.031100
2567     -0.035900
2568     -0.001800
2569     -0.001800
2570     -0.010800
2571     -0.010800
2572     -0.029900
2573     -0.028700
2574     -0.028700
2575     -0.028700
2576     -0.032300
2577     -0.033500
2578     -0.033500
2579     -0.028700
2580     -0.028700
2581     -0.026400
2582     -0.026400
2583     -0.013800
2584     -0.025800
2585     -0.025100
2586     -0.025100
2587     -0.017400
2588     -0.043100
2589     -0.043100
2590     -0.041300
2591     -0.041300
2592     -0.039500
2593     -0.039500
2594     -0.032300
2595     -0.022200
2596     -0.022200
2597     -0.019200
2598     -0.028100
2599     -0.028100
2600     -0.043700
2601     -0.032900
2602     -0.029900
2603     -0.024000
2604     -0.024000
2605     -0.049100
2606     -0.049100
2607     -0.064700
2608     -0.064700
2609     -0.044900
2610     -0.044900
2611     -0.040700
2612     -0.046100
2613     -0.032900
2614     -0.032900
2615     -0.024600
2616     -0.026900
2617     -0.046700
2618     -0.046700
2619     -0.032900
2620     -0.028100
2621     -0.035900
2622     -0.035900
2623     -0.049100
2624     -0.043100
2625     -0.043100
2626     -0.034100
2627     -0.032900
2628     -0.032900
2629     -0.033500
2630     -0.022800
2631     -0.022800
2632     -0.022800
2633     -0.042500
2634     -0.042500
2635     -0.040100
2636     -0.040100
2637     -0.026900
2638     -0.032900
2639     -0.032900
2640     -0.033500
2641     -0.035900
2642     -0.035900
2643     -0.036500
2644     -0.061100
2645     -0.061100
2646     -0.050900
2647     -0.043100
2648     -0.043100
2649     -0.042500
2650     -0.042500
2651     -0.036500
2652     -0.036500
2653     -0.039500
2654     -0.039500
2655     -0.043700
2656     -0.035300
2657     -0.022800
2658     -0.022800
2659     -0.023400
2660     -0.023400
2661     -0.026400
2662     -0.026400
2663     -0.028100
2664     -0.020400
2665     -0.020400
2666     -0.012000
2667     -0.014400
2668     -0.014400
2669     -0.016800
2670     -0.016200
2671     -0.016200
2672     -0.015600
2673     -0.022800
2674     -0.022800
2675     -0.032900
2676     -0.032900
2677     -0.019800
2678     -0.019800
2679     -0.018600
2680     -0.018600
2681      0.043100
2682     -0.033500
2683     -0.041900
2684     -0.041900
2685     -0.021600
2686     -0.009600
2687     -0.009600
2688     -0.024000
2689     -0.024000
2690     -0.015000
2691     -0.015000
2692     -0.015600
2693     -0.015600
2694      0.009600
2695      0.009600
2696     -0.001200
2697      0.003000
2698      0.003000
2699     -0.024600
2700     -0.024600
2701     -0.015000
2702     -0.015000
2703     -0.009600
2704     -0.009600
2705     -0.009000
2706     -0.009000
2707     -0.005400
2708     -0.006600
2709     -0.006600
2710     -0.003000
2711     -0.003000
2712      0.000600
2713      0.000600
2714      0.022800
2715      0.004800
2716      0.004800
2717     -0.004200
2718      0.014400
2719      0.000600
2720      0.000600
2721      0.003600
2722      0.007800
2723      0.007800
2724     -0.026400
2725     -0.014400
2726     -0.014400
2727     -0.007200
2728     -0.007200
2729     -0.011400
2730     -0.011400
2731     -0.003000
2732     -0.003000
2733      0.006000
2734      0.023400
2735      0.022200
2736      0.022200
2737      0.022200
2738      0.013200
2739      0.012000
2740      0.004800
2741      0.004800
2742      0.035900
2743      0.024000
2744      0.024000
2745      0.029300
2746      0.000000
2747      0.005400
2748      0.005400
2749      0.021600
2750      0.023400
2751      0.023400
2752      0.025800
2753      0.026400
2754      0.026400
2755      0.027500
2756      0.023400
2757      0.023400
2758      0.035300
2759      0.019800
2760      0.019800
2761      0.019800
2762      0.031100
2763      0.033500
2764      0.033500
2765      0.027500
2766      0.036500
2767      0.036500
2768      0.026400
2769      0.026400
2770      0.034700
2771      0.028100
2772      0.018000
2773      0.082000
2774      0.031100
2775      0.031100
2776     -0.013200
2777     -0.013200
2778      0.017400
2779      0.034700
2780      0.034700
2781      0.030500
2782      0.038900
2783      0.038900
2784      0.038900
2785      0.007800
2786      0.076600
2787      0.076600
2788      0.052100
2789      0.046100
2790      0.046100
2791      0.046100
2792      0.029900
2793      0.032300
2794      0.032300
2795      0.024600
2796      0.025800
2797      0.025800
2798      0.044300
2799      0.044300
2800      0.034700
2801      0.034700
2802      0.034700
2803      0.029900
2804      0.026400
2805      0.026400
2806      0.031700
2807      0.031700
2808      0.021600
2809      0.020400
2810      0.020400
2811      0.020400
2812      0.037100
2813      0.040700
2814      0.040700
2815      0.024000
2816      0.024000
2817      0.021000
2818      0.018000
2819      0.018000
2820      0.018000
2821      0.039500
2822      0.037100
2823      0.037100
2824      0.039500
2825      0.039500
2826      0.007800
2827      0.007800
2828      0.010800
2829      0.018600
2830      0.018600
2831      0.021600
2832      0.021600
2833      0.021600
2834      0.026900
2835      0.026900
2836      0.059900
2837      0.059900
2838      0.026400
2839      0.034100
2840      0.034100
2841      0.014400
2842      0.014400
2843      0.028700
2844      0.006000
2845      0.006000
2846      0.016200
2847      0.016200
2848      0.029300
2849      0.025100
2850      0.025100
2851      0.022800
2852      0.015000
2853      0.015000
2854      0.007200
2855      0.007200
2856      0.007200
2857      0.001800
2858      0.001800
2859      0.010800
2860      0.010800
2861      0.014400
2862      0.008400
2863      0.008400
2864      0.008400
2865      0.013200
2866      0.013200
2867      0.010800
2868      0.010800
2869      0.010200
2870      0.010800
2871      0.010800
2872     -0.002400
2873      0.000600
2874      0.000600
2875      0.010200
2876      0.022200
2877      0.022200
2878      0.007800
2879      0.007800
2880      0.012000
2881      0.012000
2882      0.012000
2883      0.004200
2884      0.004800
2885      0.004800
2886      0.033500
2887      0.033500
2888     -0.009000
2889     -0.018600
2890     -0.018600
2891     -0.008400
2892     -0.011400
2893     -0.011400
2894     -0.003000
2895     -0.003000
2896     -0.007800
2897     -0.007800
2898     -0.015600
2899     -0.007200
2900     -0.007200
2901     -0.007800
2902     -0.011400
2903     -0.011400
2904     -0.004800
2905     -0.004800
2906     -0.012600
2907     -0.012600
2908     -0.015600
2909     -0.005400
2910     -0.005400
2911      0.010800
2912     -0.022800
2913     -0.022800
2914     -0.024600
2915     -0.016800
2916     -0.016800
2917     -0.025100
2918     -0.008400
2919     -0.008400
2920     -0.025100
2921     -0.030500
2922     -0.030500
2923     -0.012000
2924     -0.011400
2925     -0.011400
2926      0.014400
2927      0.014400
2928     -0.020400
2929     -0.020400
2930     -0.020400
2931     -0.023400
2932     -0.023400
2933     -0.015600
2934     -0.029900
2935     -0.018600
2936     -0.018600
2937     -0.038900
2938     -0.038900
2939     -0.026400
2940     -0.026400
2941     -0.034100
2942     -0.029900
2943     -0.043100
2944     -0.043100
2945     -0.034100
2946     -0.034100
2947     -0.029300
2948     -0.029300
2949     -0.029300
2950     -0.026900
2951     -0.027500
2952     -0.027500
2953     -0.031100
2954     -0.031100
2955     -0.041900
2956     -0.041900
2957     -0.041900
2958     -0.043100
2959     -0.039500
2960     -0.039500
2961     -0.049100
2962     -0.049100
2963     -0.026400
2964     -0.023400
2965     -0.023400
2966     -0.027500
2967     -0.027500
2968     -0.029900
2969     -0.026900
2970     -0.049100
2971     -0.049100
2972     -0.049700
2973     -0.045500
2974     -0.045500
2975     -0.023400
2976     -0.023400
2977     -0.026400
2978     -0.026400
2979     -0.032900
2980     -0.040700
2981     -0.040700
2982     -0.045500
2983     -0.036500
2984     -0.036500
2985     -0.033500
2986     -0.028100
2987     -0.028100
2988     -0.042500
2989     -0.042500
2990     -0.036500
2991     -0.036500
2992     -0.036500
2993     -0.030500
2994     -0.038300
2995     -0.038300
2996     -0.037700
2997     -0.047900
2998     -0.047900
2999     -0.031700
3000      0.024000
3001      0.024000
3002     -0.037700
3003     -0.037700
3004     -0.012600
3005     -0.012600
3006     -0.019200
3007     -0.016800
3008     -0.016800
3009     -0.019200
3010     -0.030500
3011     -0.030500
3012     -0.013200
3013     -0.013200
3014     -0.019800
3015     -0.024000
3016     -0.024000
3017     -0.026900
3018     -0.029300
3019     -0.029300
3020     -0.029300
3021     -0.031700
3022     -0.031700
3023     -0.031100
3024     -0.029300
3025     -0.029300
3026     -0.026900
3027     -0.026900
3028     -0.026400
3029     -0.027500
3030     -0.027500
3031     -0.028700
3032     -0.027500
3033     -0.027500
3034     -0.028100
3035     -0.028100
3036     -0.026900
3037     -0.026400
3038     -0.026400
3039     -0.023400
3040     -0.023400
3041     -0.026900
3042     -0.028700
3043     -0.028700
3044     -0.029300
3045     -0.028700
3046     -0.028700
3047     -0.026900
3048     -0.026900
3049     -0.025800
3050     -0.025800
3051     -0.024000
3052     -0.026900
3053     -0.026900
3054     -0.026900
3055     -0.026900
3056     -0.029900
3057     -0.028700
3058     -0.028700
3059     -0.028100
3060     -0.028100
3061     -0.027500
3062     -0.026400
3063     -0.026400
3064     -0.026400
3065     -0.026400
3066     -0.025800
3067     -0.026400
3068     -0.026400
3069     -0.027500
3070     -0.028100
3071     -0.028100
3072     -0.028100
3073     -0.022800
3074     -0.021000
3075     -0.021000
3076     -0.022800
3077     -0.023400
3078     -0.023400
3079     -0.023400
3080     -0.025800
3081     -0.023400
3082     -0.023400
3083     -0.020400
3084     -0.022800
3085     -0.022800
3086     -0.022800
3087     -0.022200
3088     -0.019200
3089     -0.019200
3090     -0.024600
3091     -0.028100
3092     -0.028100
3093     -0.032300
3094     -0.032300
3095     -0.032300
3096     -0.033500
3097     -0.031700
3098     -0.031700
3099     -0.032300
3100     -0.032300
3101     -0.032300
3102     -0.033500
3103     -0.033500
3104     -0.031100
3105     -0.031100
3106     -0.029300
3107     -0.029300
3108     -0.028100
3109     -0.029900
3110     -0.029900
3111     -0.030500
3112     -0.031700
3113     -0.031700
3114     -0.031100
3115     -0.031100
3116     -0.031100
3117     -0.032300
3118     -0.032300
3119     -0.032300
3120     -0.031700
3121     -0.029300
3122     -0.029300
3123     -0.025800
3124     -0.026400
3125     -0.026400
3126     -0.029900
3127     -0.025100
3128     -0.025100
3129     -0.025100
3130     -0.022800
3131     -0.022800
3132     -0.024000
3133     -0.024000
3134     -0.027500
3135     -0.027500
3136     -0.026900
3137     -0.026900
3138     -0.024000
3139     -0.024600
3140     -0.024600
3141     -0.025100
3142     -0.025100
3143     -0.025100
3144     -0.025100
3145     -0.028100
3146     -0.029900
3147     -0.029900
3148     -0.030500
3149     -0.029900
3150     -0.029900
3151     -0.028700
3152     -0.028700
3153     -0.034100
3154     -0.034100
3155     -0.032900
3156     -0.032900
3157     -0.028700
3158     -0.028700
3159     -0.029300
3160     -0.029300
3161     -0.029300
3162     -0.029300
3163     -0.029300
3164     -0.029300
3165     -0.034100
3166     -0.034100
3167     -0.035300
3168     -0.035300
3169     -0.028700
3170     -0.028700
3171     -0.029900
3172     -0.029900
3173     -0.029900
3174     -0.031100
3175     -0.031100
3176     -0.031100
3177     -0.028700
3178     -0.031100
3179     -0.031100
3180     -0.030500
3181     -0.030500
3182     -0.030500
3183     -0.030500
3184     -0.030500
3185     -0.025800
3186     -0.025800
3187     -0.025800
3188     -0.025800
3189     -0.024600
3190     -0.028100
3191     -0.031100
3192     -0.031100
3193     -0.029300
3194     -0.028100
3195     -0.028100
3196     -0.026400
3197     -0.025800
3198     -0.025800
3199     -0.024600
3200     -0.025800
3201     -0.025800
3202     -0.024600
3203     -0.023400
3204     -0.023400
3205     -0.024600
3206     -0.024600
3207     -0.024600
3208     -0.025100
3209     -0.029900
3210     -0.029900
3211     -0.029900
3212     -0.031100
3213     -0.027500
3214     -0.026900
3215     -0.026900
3216     -0.027500
3217     -0.027500
3218     -0.027500
3219     -0.027500
3220     -0.023400
3221     -0.023400
3222     -0.025800
3223     -0.026900
3224     -0.026900
3225     -0.028700
3226     -0.028700
3227     -0.028700
3228     -0.028700
3229     -0.028700
3230     -0.028700
3231     -0.028700
3232     -0.025100
3233     -0.025100
3234     -0.025100
3235     -0.023400
3236     -0.023400
3237     -0.026900
3238     -0.026400
3239     -0.026400
3240     -0.026900
3241     -0.026400
3242     -0.026400
3243     -0.025100
3244     -0.026900
3245     -0.026900
3246     -0.025800
3247     -0.025800
3248     -0.028100
3249     -0.028100
3250     -0.028700
3251     -0.028700
3252     -0.028100
3253     -0.029300
3254     -0.029900
3255     -0.029900
3256     -0.026900
3257     -0.028700
3258     -0.028700
3259     -0.029900
3260     -0.028700
3261     -0.028700
3262     -0.028100
3263     -0.028100
3264     -0.026900
3265     -0.027500
3266     -0.025800
3267     -0.025800
3268     -0.025800
3269     -0.023400
3270     -0.024000
3271     -0.024000
3272     -0.025100
3273     -0.025100
3274     -0.026900
3275     -0.028100
3276     -0.026900
3277     -0.026900
3278     -0.026900
3279     -0.024000
3280     -0.024600
3281     -0.024600
3282     -0.028100
3283     -0.026900
3284     -0.026900
3285     -0.026400
3286     -0.032300
3287     -0.032300
3288     -0.034100
3289     -0.032900
3290     -0.032900
3291     -0.032900
3292     -0.035300
3293     -0.029900
3294     -0.029900
3295     -0.030500
3296     -0.029300
3297     -0.028100
3298     -0.028100
3299     -0.028100
3300     -0.030500
3301     -0.030500
3302     -0.029300
3303     -0.029300
3304     -0.030500
3305     -0.030500
3306     -0.032900
3307     -0.033500
3308     -0.033500
3309     -0.029900
3310     -0.029900
3311     -0.029300
3312     -0.028700
3313     -0.026900
3314     -0.029900
3315     -0.029900
3316     -0.030500
3317     -0.030500
3318     -0.029300
3319     -0.029300
3320     -0.032300
3321     -0.032300
3322     -0.030500
3323     -0.028700
3324     -0.028700
3325     -0.024600
3326     -0.025800
3327     -0.025800
3328     -0.029300
3329     -0.029300
3330     -0.032300
3331     -0.032300
3332     -0.030500
3333     -0.029300
3334     -0.031700
3335     -0.032900
3336     -0.032900
3337     -0.031100
3338     -0.031700
3339     -0.031700
3340     -0.029900
3341     -0.029900
3342     -0.028700
3343     -0.029900
3344     -0.029900
3345     -0.028100
3346     -0.028100
3347     -0.031100
3348     -0.031100
3349     -0.033500
3350     -0.031700
3351     -0.030500
3352     -0.030500
3353     -0.026900
3354     -0.026900
3355     -0.029900
3356     -0.029900
3357     -0.034100
3358     -0.038900
3359     -0.038900
3360     -0.035300
3361     -0.034700
3362     -0.034700
3363     -0.033500
3364     -0.035900
3365     -0.035900
3366     -0.035900
3367     -0.027500
3368     -0.027500
3369     -0.027500
3370     -0.029900
3371     -0.031100
3372     -0.030500
3373     -0.030500
3374     -0.026400
3375     -0.026400
3376     -0.026400
3377     -0.026900
3378     -0.027500
3379     -0.026400
3380     -0.024600
3381     -0.024600
3382     -0.027500
3383     -0.029900
3384     -0.029900
3385     -0.029300
3386     -0.028100
3387     -0.028100
3388     -0.029300
3389     -0.029300
3390     -0.029300
3391     -0.032900
3392     -0.022200
3393     -0.013200
3394     -0.013200
3395     -0.033500
3396     -0.021000
3397     -0.024000
3398     -0.024000
3399     -0.031100
3400     -0.031100
3401     -0.025100
3402     -0.025100
3403     -0.030500
3404     -0.030500
3405     -0.065300
3406     -0.025100
3407     -0.025100
3408     -0.025100
3409     -0.025100
3410     -0.030500
3411     -0.030500
3412     -0.024600
3413     -0.021600
3414     -0.021600
3415     -0.028100
3416     -0.028100
3417     -0.040700
3418     -0.057500
3419     -0.057500
3420     -0.025100
3421     -0.025100
3422     -0.025100
3423     -0.049700
3424     -0.049700
3425     -0.020400
3426     -0.028700
3427     -0.028700
3428     -0.029900
3429     -0.029900
3430     -0.024600
3431     -0.024600
3432      0.024600
3433     -0.029900
3434     -0.029900
3435     -0.028700
3436     -0.035300
3437     -0.035300
3438     -0.036500
3439     -0.036500
3440     -0.025100
3441     -0.025100
3442     -0.003600
3443     -0.014400
3444     -0.014400
3445     -0.026400
3446      0.002400
3447     -0.029300
3448     -0.032300
3449     -0.032300
3450     -0.032300
3451     -0.018000
3452     -0.009000
3453     -0.009000
3454     -0.027500
3455     -0.024000
3456     -0.024000
3457     -0.035300
3458     -0.035300
3459     -0.009000
3460     -0.007200
3461      0.011400
3462      0.011400
3463     -0.037700
3464     -0.037700
3465     -0.006600
3466     -0.006600
3467     -0.013800
3468     -0.019800
3469     -0.019800
3470     -0.019200
3471     -0.015600
3472     -0.015600
3473     -0.012600
3474     -0.015000
3475     -0.015000
3476     -0.010800
3477     -0.010800
3478     -0.009600
3479     -0.009600
3480     -0.009000
3481      0.004800
3482      0.004800
3483      0.004800
3484      0.001200
3485     -0.007200
3486     -0.007200
3487     -0.031100
3488      0.010800
3489      0.010800
3490      0.004800
3491     -0.004200
3492     -0.004200
3493      0.009000
3494      0.009600
3495      0.009600
3496      0.007800
3497      0.007800
3498      0.013200
3499      0.013200
3500      0.005400
3501      0.013200
3502      0.013200
3503      0.015000
3504      0.015000
3505      0.012000
3506      0.010800
3507      0.010800
3508      0.010200
3509      0.013200
3510      0.013200
3511      0.002400
3512      0.002400
3513      0.005400
3514      0.005400
3515      0.018600
3516      0.021600
3517      0.021600
3518      0.019800
3519      0.018000
3520      0.018000
3521      0.018000
3522      0.018000
3523      0.018000
3524      0.047300
3525      0.047300
3526      0.018000
3527      0.018600
3528      0.018600
3529      0.018600
3530      0.013800
3531      0.016800
3532      0.016800
3533      0.018600
3534      0.023400
3535      0.023400
3536      0.020400
3537      0.018000
3538      0.018000
3539      0.019800
3540      0.026400
3541      0.026400
3542      0.015600
3543      0.069500
3544      0.069500
3545      0.028700
3546      0.028700
3547      0.024000
3548      0.023400
3549      0.023400
3550      0.035900
3551      0.038300
3552      0.038300
3553      0.038300
3554      0.038300
3555      0.026400
3556      0.029900
3557      0.029900
3558      0.022200
3559      0.025100
3560      0.025100
3561      0.028700
3562      0.085000
3563      0.085000
3564      0.027500
3565      0.032300
3566      0.032300
3567      0.032300
3568      0.028100
3569      0.033500
3570      0.033500
3571      0.028700
3572      0.025800
3573      0.025800
3574      0.025800
3575      0.030500
3576      0.021600
3577      0.021600
3578      0.013800
3579      0.056300
3580      0.056300
3581      0.025100
3582      0.025100
3583      0.028700
3584      0.028700
3585      0.034100
3586      0.034100
3587      0.032900
3588      0.031100
3589      0.031100
3590      0.012000
3591      0.038900
3592      0.038900
3593      0.043700
3594      0.019800
3595      0.019800
3596      0.022200
3597      0.061100
3598      0.061100
3599      0.050300
3600      0.054500
3601      0.054500
3602      0.033500
3603      0.041300
3604      0.041300
3605      0.046100
3606      0.046100
3607      0.032300
3608      0.021000
3609      0.021000
3610      0.026900
3611      0.026900
3612      0.031700
3613      0.031700
3614      0.031700
3615      0.018000
3616      0.018000
3617      0.022800
3618      0.022800
3619      0.032300
3620      0.032300
3621      0.025100
3622      0.025100
3623      0.029300
3624      0.029300
3625      0.026400
3626      0.028100
3627      0.021600
3628      0.021600
3629      0.018000
3630      0.018000
3631      0.027500
3632      0.027500
3633      0.016800
3634      0.019800
3635      0.019800
3636      0.015600
3637      0.062900
3638      0.062900
3639      0.052700
3640      0.052700
3641      0.047900
3642      0.047900
3643      0.042500
3644      0.037100
3645      0.037100
3646      0.049700
3647      0.010200
3648      0.010200
3649      0.001200
3650      0.006000
3651      0.006000
3652      0.004800
3653      0.004800
3654      0.005400
3655      0.025100
3656      0.028100
3657      0.028100
3658      0.042500
3659      0.037100
3660      0.037100
3661      0.025800
3662      0.025800
3663      0.012000
3664      0.012000
3665      0.004800
3666      0.011400
3667      0.011400
3668      0.011400
3669      0.009000
3670      0.020400
3671      0.005400
3672      0.005400
3673      0.001200
3674     -0.040700
3675     -0.040700
3676      0.024000
3677      0.024000
3678      0.029900
3679      0.029900
3680      0.010200
3681     -0.006600
3682     -0.006600
3683     -0.013200
3684     -0.013200
3685     -0.007800
3686     -0.007800
3687     -0.000600
3688     -0.011400
3689     -0.011400
3690     -0.018600
3691     -0.017400
3692     -0.017400
3693      0.006600
3694     -0.009000
3695     -0.009000
3696      0.034700
3697      0.034700
3698      0.008400
3699      0.008400
3700     -0.002400
3701     -0.003000
3702     -0.003000
3703      0.011400
3704     -0.004800
3705     -0.004800
3706     -0.009000
3707     -0.013200
3708     -0.013200
3709     -0.006000
3710     -0.006000
3711     -0.016800
3712     -0.016800
3713      0.005400
3714     -0.010200
3715     -0.010200
3716     -0.021000
3717     -0.021000
3718     -0.005400
3719      0.004800
3720     -0.007200
3721     -0.014400
3722     -0.018000
3723     -0.018000
3724     -0.013800
3725     -0.021000
3726     -0.022200
3727     -0.021000
3728     -0.021000
3729     -0.018000
3730     -0.018000
3731     -0.024000
3732     -0.024000
3733     -0.047300
3734     -0.034100
3735     -0.034100
3736     -0.025800
3737     -0.025800
3738     -0.008400
3739     -0.008400
3740     -0.015600
3741     -0.015600
3742     -0.024600
3743     -0.024600
3744     -0.049700
3745     -0.049700
3746     -0.046100
3747     -0.046100
3748     -0.010200
3749     -0.023400
3750     -0.031700
3751     -0.031700
3752     -0.037100
3753     -0.041900
3754     -0.041900
3755     -0.048500
3756     -0.048500
3757     -0.044300
3758     -0.044300
3759     -0.052100
3760     -0.052100
3761     -0.022800
3762     -0.022800
3763     -0.050900
3764     -0.026400
3765     -0.026400
3766     -0.032900
3767     -0.017400
3768     -0.017400
3769     -0.024600
3770     -0.044300
3771     -0.044300
3772     -0.060500
3773     -0.039500
3774     -0.039500
3775     -0.043100
3776     -0.053300
3777     -0.053300
3778     -0.041300
3779     -0.050300
3780     -0.050300
3781     -0.044900
3782     -0.044900
3783     -0.033500
3784     -0.033500
3785     -0.046700
3786     -0.017400
3787     -0.017400
3788     -0.029300
3789     -0.029300
3790     -0.041300
3791     -0.034100
3792     -0.038300
3793     -0.038300
3794     -0.027500
3795     -0.051500
3796     -0.051500
3797     -0.025100
3798     -0.073600
3799     -0.073600
3800     -0.029900
3801     -0.029900
3802      0.005400
3803     -0.048500
3804     -0.038300
3805     -0.038300
3806     -0.038300
3807     -0.038300
3808     -0.038900
3809     -0.038900
3810     -0.044300
3811     -0.026400
3812     -0.026400
3813     -0.037100
3814     -0.064700
3815     -0.064700
3816     -0.029900
3817     -0.020400
3818     -0.020400
3819     -0.046700
3820     -0.031100
3821     -0.031100
3822     -0.031100
3823     -0.012000
3824     -0.040100
3825     -0.040100
3826     -0.039500
3827     -0.037100
3828     -0.059300
3829     -0.059300
3830     -0.018000
3831     -0.042500
3832     -0.042500
3833     -0.040700
3834     -0.071200
3835      0.011400
3836      0.003600
3837      0.003600
3838      0.013200
3839      0.010200
3840      0.010200
3841      0.019200
3842      0.024000
3843      0.016800
3844      0.016800
3845      0.013800
3846      0.013800
3847      0.008400
3848      0.015000
3849      0.019800
3850      0.019800
3851      0.019800
3852      0.009000
3853      0.052100
3854      0.052100
3855      0.031100
3856      0.031100
3857      0.025800
3858      0.025800
3859      0.030500
3860      0.044900
3861      0.044900
3862      0.040100
3863      0.037700
3864      0.037700
3865      0.055700
3866      0.055700
3867      0.029900
3868      0.029900
3869      0.034100
3870      0.034100
3871      0.031100
3872      0.032900
3873      0.055100
3874      0.055100
3875      0.021000
3876      0.032300
3877      0.032300
3878      0.031700
3879      0.031700
3880      0.016800
3881      0.016800
3882      0.044300
3883      0.038300
3884      0.040100
3885      0.040100
3886      0.026400
3887      0.026400
3888      0.033500
3889      0.014400
3890      0.014400
3891      0.014400
3892      0.018600
3893      0.032300
3894      0.033500
3895      0.033500
3896      0.033500
3897      0.035300
3898      0.035300
3899      0.025800
3900      0.027500
3901      0.027500
3902      0.029900
3903      0.029900
3904      0.034700
3905      0.021600
3906      0.030500
3907      0.030500
3908      0.027500
3909      0.031700
3910      0.031700
3911      0.031700
3912      0.031700
3913      0.040100
3914      0.083200
3915      0.067100
3916      0.067100
3917      0.044900
3918      0.044900
3919      0.044900
3920      0.046700
3921      0.029900
3922      0.029900
3923      0.039500
3924      0.039500
3925      0.026900
3926      0.026900
3927      0.025100
3928      0.025100
3929      0.021000
3930      0.018600
3931      0.018600
3932      0.018000
3933      0.018600
3934      0.018600
3935      0.037700
3936      0.044900
3937      0.044900
3938      0.043100
3939      0.043100
3940      0.026900
3941      0.026900
3942      0.026900
3943      0.023400
3944      0.023400
3945     -0.007800
3946     -0.007800
3947      0.000000
3948      0.000000
3949      0.019200
3950      0.019200
3951      0.019200
3952      0.014400
3953     -0.041900
3954     -0.041900
3955     -0.041900
3956      0.034700
3957      0.034700
3958      0.035900
3959      0.035900
3960      0.050900
3961      0.050900
3962      0.032900
3963      0.015000
3964      0.015000
3965      0.014400
3966      0.014400
3967      0.015000
3968      0.007200
3969      0.007200
3970      0.013200
3971      0.013200
3972     -0.002400
3973     -0.000600
3974     -0.000600
3975     -0.003000
3976     -0.003000
3977      0.001800
3978      0.001800
3979     -0.031100
3980     -0.031100
3981      0.021600
3982      0.013200
3983      0.013200
3984      0.011400
3985      0.011400
3986      0.055700
3987      0.055700
3988      0.003000
3989      0.021000
3990      0.021000
3991     -0.035900
3992     -0.021600
3993     -0.021600
3994     -0.018600
3995     -0.018600
3996     -0.004200
3997     -0.004200
3998      0.000000
3999      0.000000
4000     -0.001200
4001     -0.001200
4002      0.005400
4003      0.001800
4004     -0.005400
4005     -0.005400
4006      0.007800
4007     -0.001800
4008     -0.001800
4009     -0.001800
4010     -0.013200
4011     -0.013200
4012     -0.018000
4013     -0.018000
4014      0.014400
4015      0.005400
4016      0.002400
4017      0.002400
4018     -0.001200
4019     -0.001200
4020     -0.004200
4021     -0.009600
4022     -0.010800
4023     -0.010800
4024     -0.010800
4025      0.001200
4026     -0.001200
4027     -0.001200
4028     -0.000600
4029     -0.000600
4030      0.005400
4031      0.005400
4032      0.012000
4033      0.012000
4034      0.007200
4035      0.007200
4036      0.025800
4037     -0.010200
4038     -0.010200
4039     -0.010200
4040     -0.012600
4041     -0.001200
4042     -0.001200
4043      0.007200
4044      0.007200
4045      0.007800
4046      0.007800
4047      0.002400
4048      0.002400
4049      0.000600
4050      0.007200
4051      0.007200
4052      0.010800
4053      0.010800
4054      0.012000
4055      0.006600
4056      0.006600
4057      0.004800
4058      0.001800
4059      0.001800
4060      0.006000
4061      0.003600
4062      0.003600
4063      0.007200
4064      0.009000
4065      0.009000
4066      0.009000
4067      0.012000
4068      0.012000
4069      0.013800
4070      0.010800
4071      0.010800
4072      0.006600
4073      0.003600
4074      0.003600
4075      0.007200
4076      0.006600
4077      0.006600
4078      0.006000
4079      0.006000
4080      0.006000
4081      0.006600
4082      0.006600
4083      0.006600
4084      0.007200
4085      0.009000
4086      0.009000
4087      0.006600
4088      0.004800
4089      0.004800
4090      0.004200
4091      0.010800
4092      0.010800
4093      0.009000
4094      0.009000
4095      0.006000
4096      0.006000
4097      0.006000
4098      0.006000
4099      0.006000
4100      0.006600
4101      0.006600
4102      0.007800
4103      0.009000
4104      0.009000
4105      0.007200
4106      0.007200
4107      0.005400
4108      0.005400
4109      0.006000
4110      0.003000
4111      0.003000
4112      0.005400
4113      0.007800
4114      0.007800
4115      0.007200
4116      0.006000
4117      0.006000
4118      0.005400
4119      0.004800
4120      0.004800
4121      0.004800
4122      0.005400
4123      0.005400
4124      0.006600
4125      0.005400
4126      0.006600
4127      0.006000
4128      0.007200
4129      0.008400
4130      0.008400
4131      0.007200
4132      0.004200
4133      0.006600
4134      0.006600
4135      0.004200
4136      0.004200
4137      0.004200
4138      0.004200
4139      0.008400
4140      0.008400
4141      0.008400
4142      0.008400
4143      0.008400
4144      0.004200
4145      0.004200
4146      0.005400
4147      0.005400
4148      0.004800
4149      0.005400
4150      0.005400
4151      0.004800
4152      0.004200
4153      0.004200
4154      0.003000
4155      0.003000
4156      0.006000
4157      0.006000
4158      0.007800
4159      0.006000
4160      0.006000
4161      0.009600
4162      0.012600
4163      0.012600
4164      0.011400
4165      0.009000
4166      0.009000
4167      0.009600
4168      0.010200
4169      0.010200
4170      0.012600
4171      0.012600
4172      0.012600
4173      0.012600
4174      0.010800
4175      0.011400
4176      0.011400
4177      0.012000
4178      0.012000
4179      0.010800
4180      0.010800
4181      0.009600
4182      0.009600
4183      0.009600
4184      0.006600
4185      0.006600
4186      0.004200
4187      0.004200
4188      0.004800
4189      0.009600
4190      0.009600
4191      0.012600
4192      0.010200
4193      0.010200
4194      0.009000
4195      0.009600
4196      0.009600
4197      0.005400
4198      0.005400
4199      0.003000
4200      0.003000
4201      0.005400
4202      0.006600
4203      0.006600
4204      0.004800
4205      0.006600
4206      0.006600
4207      0.006600
4208      0.010800
4209      0.010800
4210      0.012000
4211      0.012000
4212      0.011400
4213      0.011400
4214      0.011400
4215      0.007800
4216      0.006000
4217      0.006000
4218      0.007200
4219      0.007200
4220      0.005400
4221      0.008400
4222      0.008400
4223      0.007800
4224      0.007200
4225      0.007200
4226      0.006000
4227      0.006000
4228      0.003600
4229      0.003600
4230      0.007200
4231      0.007200
4232      0.009000
4233      0.009000
4234      0.009600
4235      0.007800
4236      0.005400
4237      0.005400
4238      0.005400
4239      0.007200
4240      0.008400
4241      0.006000
4242      0.006000
4243      0.010200
4244      0.010200
4245      0.010800
4246      0.012000
4247      0.012000
4248      0.010800
4249      0.007800
4250      0.007800
4251      0.007200
4252      0.006600
4253      0.006600
4254      0.007200
4255      0.010200
4256      0.010200
4257      0.009000
4258      0.008400
4259      0.008400
4260      0.008400
4261      0.010800
4262      0.010800
4263      0.009000
4264      0.009000
4265      0.007800
4266      0.007800
4267      0.007800
4268      0.005400
4269      0.009600
4270      0.009600
4271      0.008400
4272      0.007800
4273      0.012000
4274      0.012000
4275      0.010800
4276      0.012000
4277      0.012000
4278      0.012000
4279      0.012600
4280      0.012600
4281      0.012000
4282      0.004800
4283      0.004200
4284      0.004200
4285      0.004800
4286      0.004800
4287      0.006600
4288      0.006600
4289      0.006600
4290      0.006600
4291      0.006600
4292      0.006600
4293      0.006000
4294      0.004200
4295      0.006600
4296      0.006600
4297      0.007800
4298      0.010200
4299      0.010200
4300      0.009000
4301      0.007200
4302      0.007200
4303      0.011400
4304      0.010800
4305      0.010800
4306      0.009600
4307      0.011400
4308      0.011400
4309      0.011400
4310      0.011400
4311      0.011400
4312      0.009600
4313      0.006600
4314      0.006600
4315      0.004800
4316      0.007200
4317      0.007200
4318      0.006000
4319      0.006000
4320      0.009000
4321      0.009000
4322      0.008400
4323      0.009000
4324      0.009000
4325      0.009000
4326      0.009000
4327      0.005400
4328      0.005400
4329      0.006600
4330      0.006600
4331      0.009000
4332      0.009000
4333      0.007800
4334      0.004800
4335      0.004800
4336      0.006000
4337      0.006000
4338      0.007800
4339      0.007800
4340      0.007200
4341      0.007200
4342      0.007200
4343      0.007200
4344      0.005400
4345      0.007200
4346      0.007200
4347      0.006600
4348      0.006600
4349      0.006600
4350      0.008400
4351      0.008400
4352      0.009000
4353      0.009000
4354      0.009000
4355      0.009000
4356      0.008400
4357      0.009000
4358      0.009000
4359      0.006600
4360      0.006600
4361      0.005400
4362      0.003000
4363      0.002400
4364      0.002400
4365      0.004800
4366      0.008400
4367      0.008400
4368      0.012000
4369      0.012000
4370      0.011400
4371      0.003000
4372      0.007800
4373      0.007800
4374      0.007200
4375      0.007200
4376      0.007200
4377      0.006600
4378      0.006600
4379      0.003600
4380      0.003600
4381      0.004200
4382      0.010800
4383      0.010800
4384      0.007200
4385      0.007200
4386      0.005400
4387      0.012600
4388      0.009600
4389      0.009600
4390      0.009600
4391      0.009000
4392      0.003600
4393      0.004200
4394      0.004200
4395      0.000000
4396      0.003600
4397      0.003600
4398      0.009000
4399      0.005400
4400      0.005400
4401      0.011400
4402      0.010800
4403      0.010800
4404      0.011400
4405      0.013200
4406      0.013200
4407      0.006000
4408      0.006000
4409      0.006000
4410      0.009000
4411      0.010800
4412      0.010800
4413      0.006000
4414      0.006000
4415      0.005400
4416      0.005400
4417      0.004800
4418      0.007200
4419      0.007800
4420      0.007800
4421      0.013800
4422      0.007800
4423      0.007800
4424      0.007800
4425      0.008400
4426      0.007800
4427      0.007800
4428      0.009600
4429      0.014400
4430      0.014400
4431      0.010800
4432     -0.000600
4433      0.004800
4434      0.009000
4435      0.009000
4436      0.012000
4437      0.012000
4438      0.012600
4439      0.010800
4440      0.010800
4441      0.007200
4442      0.007200
4443      0.007200
4444      0.007200
4445      0.006000
4446      0.006000
4447      0.004800
4448      0.004800
4449      0.009000
4450      0.009000
4451      0.007200
4452      0.007200
4453      0.008400
4454      0.008400
4455      0.006000
4456      0.006000
4457      0.005400
4458      0.005400
4459      0.006000
4460      0.008400
4461      0.008400
4462      0.006600
4463      0.002400
4464      0.002400
4465      0.000600
4466      0.005400
4467      0.005400
4468      0.007200
4469      0.007200
4470      0.007800
4471      0.009000
4472      0.009000
4473      0.007800
4474      0.006000
4475      0.006000
4476      0.006000
4477      0.009000
4478      0.008400
4479      0.008400
4480      0.009000
4481      0.009000
4482      0.009600
4483      0.009000
4484      0.009000
4485      0.012000
4486      0.008400
4487      0.008400
4488      0.009000
4489      0.008400
4490      0.008400
4491      0.013800
4492      0.013800
4493      0.014400
4494      0.014400
4495      0.015000
4496      0.015000
4497      0.014400
4498      0.014400
4499      0.012000
4500      0.010200
4501      0.010200
4502      0.010200
4503      0.009000
4504      0.009000
4505      0.007800
4506      0.006600
4507      0.006600
4508      0.004800
4509      0.008400
4510      0.011400
4511      0.010800
4512      0.010800
4513      0.010800
4514      0.010800
4515      0.009000
4516      0.009000
4517      0.008400
4518      0.006600
4519      0.006600
4520      0.007200
4521      0.013800
4522      0.013800
4523      0.009600
4524      0.010800
4525      0.010800
4526      0.008400
4527      0.008400
4528      0.008400
4529      0.008400
4530      0.008400
4531      0.011400
4532      0.011400
4533      0.010800
4534      0.009600
4535      0.009600
4536      0.009000
4537      0.010200
4538      0.010200
4539      0.010200
4540      0.008400
4541      0.008400
4542      0.012000
4543      0.015600
4544      0.015600
4545      0.010200
4546      0.010200
4547      0.007200
4548      0.008400
4549      0.008400
4550      0.008400
4551      0.008400
4552      0.009000
4553      0.007200
4554      0.007200
4555      0.010800
4556      0.009600
4557      0.009600
4558      0.009000
4559      0.012600
4560      0.012600
4561      0.013200
4562      0.013200
4563      0.007200
4564      0.005400
4565      0.005400
4566      0.009000
4567      0.009000
4568      0.008400
4569      0.008400
4570      0.008400
4571      0.006000
4572      0.006000
4573      0.006000
4574      0.007800
4575      0.010200
4576      0.010200
4577      0.009600
4578      0.009000
4579      0.009000
4580      0.010800
4581      0.007800
4582      0.007800
4583      0.007800
4584      0.007800
4585      0.012000
4586      0.012000
4587      0.012600
4588      0.012600
4589      0.013800
4590      0.014400
4591      0.014400
4592      0.012600
4593      0.010800
4594      0.010800
4595      0.009000
4596      0.009000
4597      0.009000
4598      0.008400
4599      0.008400
4600      0.008400
4601      0.010800
4602      0.010800
4603      0.010800
4604      0.010800
4605      0.010800
4606      0.010200
4607      0.011400
4608      0.012000
4609      0.012000
4610      0.011400
4611      0.011400
4612      0.008400
4613      0.008400
4614      0.010200
4615      0.010200
4616      0.010200
4617      0.009000
4618      0.006600
4619      0.006600
4620      0.009000
4621      0.009600
4622      0.009600
4623      0.008400
4624      0.007200
4625      0.007200
4626      0.006000
4627      0.009000
4628      0.009000
4629      0.010800
4630      0.011400
4631      0.011400
4632      0.009000
4633      0.010200
4634      0.010200
4635      0.010800
4636      0.010200
4637      0.010200
4638      0.008400
4639      0.007200
4640      0.007200
4641      0.006000
4642      0.009000
4643      0.009000
4644      0.004800
4645      0.006600
4646      0.006600
4647      0.008400
4648      0.006000
4649      0.006000
4650      0.007800
4651      0.007800
4652      0.008400
4653      0.008400
4654      0.009600
4655      0.009000
4656      0.009000
4657      0.006600
4658      0.006600
4659      0.006600
4660      0.003600
4661      0.004800
4662      0.004800
4663      0.005400
4664      0.005400
4665      0.005400
4666      0.005400
4667      0.005400
4668      0.005400
4669      0.004200
4670      0.004200
4671      0.006000
4672      0.006000
4673      0.007800
4674      0.007800
4675      0.007800
4676      0.007800
4677      0.009000
4678      0.009000
4679      0.007800
4680      0.007800
4681      0.010200
4682      0.010200
4683      0.010800
4684      0.007200
4685      0.007200
4686      0.007200
4687      0.007800
4688      0.010800
4689      0.010800
4690      0.010200
4691      0.010200
4692      0.010200
4693      0.012000
4694      0.012000
4695      0.013800
4696      0.013800
4697      0.009600
4698      0.009600
4699      0.010800
4700      0.012000
4701      0.010200
4702      0.010200
4703      0.007800
4704      0.009000
4705      0.009000
4706      0.007200
4707      0.007200
4708      0.007800
4709      0.006600
4710      0.004800
4711      0.004800
4712      0.004800
4713      0.004200
4714      0.006000
4715      0.006000
4716      0.009000
4717      0.009000
4718      0.007200
4719      0.006000
4720      0.006000
4721      0.006000
4722      0.006000
4723      0.007200
4724      0.009000
4725      0.007800
4726      0.007800
4727      0.007800
4728      0.009000
4729      0.009600
4730      0.009600
4731      0.008400
4732      0.013200
4733      0.013200
4734      0.008400
4735      0.009000
4736      0.009000
4737      0.010200
4738      0.010200
4739      0.010200
4740      0.009000
4741      0.010200
4742      0.010200
4743      0.007200
4744      0.008400
4745      0.008400
4746      0.008400
4747      0.008400
4748      0.008400
4749      0.008400
4750      0.006000
4751      0.005400
4752      0.006600
4753      0.002400
4754      0.010800
4755      0.010800
4756      0.009000
4757      0.009000
4758      0.008400
4759      0.012600
4760      0.012600
4761      0.011400
4762      0.010200
4763      0.010200
4764      0.010200
4765      0.009000
4766      0.009000
4767      0.009000
4768      0.009000
4769      0.010200
4770      0.009600
4771      0.009600
4772      0.010800
4773      0.010800
4774      0.011400
4775      0.010800
4776      0.010800
4777      0.008400
4778      0.008400
4779      0.010800
4780      0.015000
4781      0.014400
4782      0.014400
4783      0.012600
4784      0.011400
4785      0.011400
4786      0.009600
4787      0.008400
4788      0.008400
4789      0.009600
4790      0.009600
4791      0.007800
4792      0.006600
4793      0.004200
4794      0.004200
4795      0.004200
4796      0.008400
4797      0.008400
4798      0.008400
4799      0.006000
4800      0.007800
4801      0.007800
4802      0.008400
4803      0.008400
4804      0.007200
4805      0.007200
4806      0.008400
4807      0.007800
4808      0.007800
4809      0.009000
4810      0.010800
4811      0.010800
4812      0.010200
4813      0.012600
4814      0.012600
4815      0.010200
4816      0.008400
4817      0.008400
4818      0.008400
4819      0.009600
4820      0.006000
4821      0.006000
4822      0.005400
4823      0.005400
4824      0.007800
4825      0.008400
4826      0.007800
4827      0.007200
4828      0.007200
4829      0.007200
4830      0.005400
4831      0.005400
4832      0.007800
4833      0.007800
4834      0.006600
4835      0.006600
4836      0.006600
4837      0.007800
4838      0.006600
4839      0.006600
4840      0.008400
4841      0.008400
4842      0.008400
4843      0.006600
4844      0.006600
4845      0.008400
4846      0.008400
4847      0.008400
4848      0.012000
4849      0.012000
4850      0.012000
4851      0.013800
4852      0.010200
4853      0.010200
4854      0.013200
4855      0.010800
4856      0.010800
4857      0.010800
4858      0.008400
4859      0.008400
4860      0.010800
4861      0.008400
4862      0.008400
4863      0.006600
4864      0.006600
4865      0.006600
4866      0.009000
4867      0.011400
4868      0.013200
4869      0.013200
4870      0.013200
4871      0.010800
4872      0.010800
4873      0.010800
4874      0.009000
4875      0.009000
4876      0.005400
4877      0.005400
4878      0.002400
4879      0.005400
4880      0.007800
4881      0.007800
4882      0.007800
4883      0.007800
4884      0.011400
4885      0.011400
4886      0.011400
4887      0.011400
4888      0.009000
4889      0.010200
4890      0.010200
4891      0.010200
4892      0.010800
4893      0.010800
4894      0.009600
4895      0.006000
4896      0.006000
4897      0.001800
4898      0.005400
4899      0.005400
4900      0.004800
4901      0.004800
4902      0.004200
4903      0.005400
4904      0.006600
4905      0.006600
4906      0.004800
4907      0.006000
4908      0.006000
4909      0.007800
4910      0.005400
4911      0.005400
4912      0.006000
4913      0.005400
4914      0.005400
4915      0.009000
4916      0.009000
4917      0.009000
4918      0.010200
4919      0.010200
4920      0.010200
4921      0.007800
4922      0.007800
4923      0.008400
4924      0.008400
4925      0.006000
4926      0.006000
4927      0.007200
4928      0.005400
4929      0.005400
4930      0.004200
4931      0.004200
4932      0.004200
4933      0.004200
4934      0.004200
4935      0.004200
4936      0.005400
4937      0.005400
4938      0.006600
4939      0.006600
4940      0.007800
4941      0.010200
4942      0.009000
4943      0.009000
4944      0.010200
4945      0.015000
4946      0.015000
4947      0.013800
4948      0.013200
4949      0.013200
4950      0.012000
4951      0.012000
4952      0.012000
4953      0.010200
4954      0.010200
4955      0.009600
4956      0.009600
4957      0.012600
4958      0.012600
4959      0.011400
4960      0.015600
4961      0.015600
4962      0.013200
4963      0.013200
4964      0.012600
4965      0.012600
4966      0.010800
4967      0.010800
4968      0.011400
4969      0.011400
4970      0.012000
4971      0.011400
4972      0.011400
4973      0.010800
4974      0.009600
4975      0.009600
4976      0.009600
4977      0.009600
4978      0.009600
4979      0.009600
4980      0.009600
4981      0.007200
4982      0.007200
4983      0.004800
4984      0.004800
4985      0.007800
4986      0.007200
4987      0.007800
4988      0.007800
4989      0.007800
4990      0.009000
4991      0.009000
4992      0.009600
4993      0.010800
4994      0.012000
4995      0.012000
4996      0.011400
4997      0.013200
4998      0.013200
4999      0.013200
5000      0.012000
5001      0.012000
5002      0.010200
5003      0.010800
5004      0.010800
5005      0.011400
5006      0.012000
5007      0.007800
5008      0.007800
5009      0.007800
5010      0.007800
5011      0.007200
5012      0.009000
5013      0.009000
5014      0.009000
5015      0.010800
5016      0.010800
5017      0.010800
5018      0.006600
5019      0.006600
5020      0.009000
5021      0.006600
5022      0.005400
5023      0.005400
5024      0.006000
5025      0.006000
5026      0.006000
5027      0.005400
5028      0.005400
5029      0.005400
5030      0.007200
5031      0.006000
5032      0.006000
5033      0.006000
5034      0.006000
5035      0.007800
5036      0.009000
5037      0.009000
5038      0.009600
5039      0.009600
5040      0.007200
5041      0.010800
5042      0.010800
5043      0.010200
5044      0.010200
5045      0.012000
5046      0.010800
5047      0.010800
5048      0.009600
5049      0.011400
5050      0.007800
5051      0.007800
5052      0.009000
5053      0.007800
5054      0.007800
5055      0.007800
5056      0.006600
5057      0.008400
5058      0.008400
5059      0.009600
5060      0.012600
5061      0.012600
5062      0.009600
5063      0.009600
5064      0.008400
5065      0.008400
5066      0.009000
5067      0.010200
5068      0.010200
5069      0.009000
5070      0.009000
5071      0.009600
5072      0.011400
5073      0.011400
5074      0.007800
5075      0.007200
5076      0.007200
5077      0.006000
5078      0.006000
5079      0.005400
5080      0.005400
5081      0.006000
5082      0.006000
5083      0.006000
5084      0.007200
5085      0.007200
5086      0.008400
5087      0.008400
5088      0.007800
5089      0.004200
5090      0.004200
5091      0.006000
5092      0.009000
5093      0.009000
5094      0.010800
5095      0.007800
5096      0.007800
5097      0.007800
5098      0.010200
5099      0.010200
5100      0.010800
5101      0.010200
5102      0.010200
5103      0.007800
5104      0.007800
5105      0.007800
5106      0.007200
5107      0.005400
5108      0.005400
5109      0.007200
5110      0.007200
5111      0.008400
5112      0.008400
5113      0.009000
5114      0.007800
5115      0.007800
5116      0.008400
5117      0.006600
5118      0.006600
5119      0.010200
5120      0.009600
5121      0.009600
5122      0.009000
5123      0.009000
5124      0.009000
5125      0.006600
5126      0.006600
5127      0.011400
5128      0.007200
5129      0.007200
5130      0.007200
5131      0.006600
5132      0.000600
5133      0.012000
5134      0.002400
5135      0.002400
5136     -0.009000
5137     -0.006600
5138      0.004200
5139      0.004200
5140      0.007800
5141      0.007800
5142      0.000600
5143      0.004200
5144     -0.002400
5145     -0.002400
5146     -0.006600
5147      0.006000
5148      0.006000
5149      0.015000
5150      0.006600
5151      0.006600
5152      0.004800
5153      0.001200
5154      0.001200
5155      0.010200
5156      0.010200
5157     -0.006000
5158     -0.006000
5159     -0.001200
5160     -0.007800
5161     -0.007800
5162     -0.019800
5163     -0.019800
5164     -0.010800
5165     -0.010800
5166      0.003000
5167      0.000000
5168      0.000000
5169      0.010800
5170      0.006000
5171      0.006000
5172      0.009600
5173     -0.007200
5174     -0.007200
5175     -0.011400
5176      0.000600
5177      0.000600
5178      0.004200
5179      0.001800
5180      0.001800
5181      0.011400
5182      0.011400
5183      0.015600
5184      0.015600
5185      0.024600
5186      0.024600
5187      0.013200
5188      0.013200
5189      0.017400
5190      0.017400
5191     -0.008400
5192     -0.008400
5193     -0.008400
5194     -0.026400
5195      0.006600
5196      0.011400
5197      0.011400
5198      0.009600
5199      0.009600
5200      0.009600
5201      0.021000
5202      0.027500
5203      0.027500
5204      0.025100
5205      0.025100
5206      0.029300
5207      0.029300
5208      0.029300
5209      0.030500
5210      0.029300
5211      0.029300
5212      0.040100
5213      0.032300
5214      0.039500
5215      0.039500
5216      0.038900
5217      0.011400
5218      0.011400
5219     -0.002400
5220     -0.002400
5221      0.010200
5222      0.010200
5223      0.024000
5224      0.025100
5225      0.025100
5226      0.034100
5227      0.034700
5228      0.022800
5229      0.022800
5230      0.038300
5231      0.004200
5232      0.004200
5233      0.034700
5234      0.034700
5235      0.018000
5236      0.017400
5237      0.017400
5238      0.029900
5239      0.036500
5240      0.036500
5241      0.043100
5242      0.047300
5243      0.047300
5244      0.041300
5245      0.047300
5246      0.047300
5247      0.045500
5248      0.041300
5249      0.041300
5250      0.037700
5251      0.037700
5252      0.028700
5253      0.028700
5254      0.032300
5255      0.037700
5256      0.037700
5257      0.038300
5258      0.038300
5259      0.034100
5260      0.034100
5261      0.043700
5262      0.043700
5263      0.041900
5264      0.032900
5265      0.042500
5266      0.042500
5267      0.034700
5268      0.024600
5269      0.024600
5270      0.031700
5271      0.031700
5272      0.034700
5273      0.020400
5274      0.034100
5275      0.034100
5276      0.038300
5277      0.025800
5278      0.025800
5279      0.006000
5280      0.010200
5281      0.010200
5282      0.024000
5283      0.024000
5284      0.034100
5285      0.034100
5286      0.032300
5287      0.032300
5288      0.000000
5289      0.012600
5290      0.012600
5291      0.019800
5292      0.021000
5293      0.037700
5294      0.037700
5295      0.042500
5296      0.042500
5297      0.015600
5298      0.021600
5299     -0.008400
5300     -0.008400
5301     -0.008400
5302      0.040100
5303      0.019800
5304      0.019800
5305      0.030500
5306      0.030500
5307      0.018600
5308      0.025800
5309      0.028100
5310      0.028100
5311      0.026900
5312      0.017400
5313      0.017400
5314      0.006000
5315      0.006000
5316      0.022800
5317      0.022800
5318      0.022800
5319      0.027500
5320      0.027500
5321      0.006000
5322      0.006000
5323      0.016800
5324      0.016800
5325      0.016200
5326      0.009000
5327      0.009000
5328      0.018600
5329      0.016800
5330      0.016800
5331      0.016800
5332      0.012000
5333      0.012000
5334      0.013800
5335      0.013800
5336      0.005400
5337     -0.004800
5338     -0.004800
5339      0.011400
5340      0.018000
5341      0.018000
5342      0.007800
5343      0.006600
5344      0.006600
5345     -0.004200
5346     -0.003000
5347     -0.003000
5348      0.032300
5349      0.001800
5350      0.001800
5351     -0.010200
5352     -0.010200
5353     -0.000600
5354     -0.000600
5355      0.000000
5356     -0.007800
5357     -0.007800
5358     -0.009000
5359     -0.009000
5360     -0.001800
5361     -0.009000
5362     -0.009000
5363     -0.016800
5364     -0.009000
5365     -0.009000
5366      0.007800
5367      0.007800
5368      0.007800
5369     -0.022800
5370     -0.022800
5371     -0.042500
5372     -0.042500
5373     -0.020400
5374     -0.022800
5375     -0.034700
5376     -0.034700
5377     -0.034700
5378     -0.011400
5379     -0.011400
5380     -0.019200
5381      0.016800
5382      0.016800
5383     -0.025100
5384     -0.031700
5385     -0.026900
5386     -0.026900
5387     -0.029300
5388     -0.029300
5389     -0.028100
5390     -0.025100
5391     -0.025100
5392     -0.033500
5393     -0.033500
5394     -0.056300
5395     -0.056300
5396     -0.031100
5397     -0.025800
5398     -0.021600
5399     -0.044300
5400     -0.044300
5401     -0.035300
5402     -0.026900
5403     -0.026900
5404     -0.026900
5405     -0.027500
5406     -0.035300
5407     -0.026900
5408     -0.026900
5409     -0.026900
5410     -0.026900
5411     -0.025100
5412     -0.059900
5413     -0.059900
5414     -0.044300
5415     -0.044300
5416     -0.037700
5417     -0.037700
5418     -0.034700
5419     -0.034700
5420     -0.038300
5421     -0.038300
5422     -0.049700
5423     -0.049700
5424     -0.052100
5425     -0.040100
5426     -0.040100
5427     -0.034700
5428     -0.024600
5429     -0.024600
5430     -0.029900
5431     -0.028100
5432     -0.028100
5433     -0.023400
5434     -0.023400
5435     -0.032900
5436     -0.056900
5437     -0.041900
5438     -0.041900
5439     -0.037100
5440     -0.044900
5441     -0.044900
5442     -0.041300
5443     -0.034100
5444     -0.034100
5445     -0.029300
5446     -0.037100
5447     -0.037100
5448     -0.032300
5449     -0.032300
5450     -0.018600
5451     -0.039500
5452     -0.031100
5453     -0.031100
5454     -0.034100
5455     -0.035300
5456     -0.035300
5457     -0.025800
5458     -0.023400
5459     -0.023400
5460     -0.013800
5461     -0.013800
5462     -0.009600
5463     -0.013200
5464     -0.013200
5465      0.003600
5466     -0.009600
5467     -0.016800
5468     -0.016800
5469     -0.016800
5470     -0.028700
5471     -0.038900
5472     -0.038900
5473     -0.035300
5474     -0.013200
5475     -0.013200
5476      0.018000
5477      0.018000
5478      0.001200
5479     -0.011400
5480     -0.011400
5481     -0.025100
5482     -0.018600
5483     -0.018000
5484     -0.018000
5485     -0.014400
5486     -0.014400
5487     -0.004200
5488      0.005400
5489      0.004800
5490      0.004800
5491      0.004800
5492      0.013200
5493      0.013200
5494     -0.012000
5495     -0.024000
5496     -0.003600
5497     -0.003600
5498     -0.003600
5499     -0.001200
5500     -0.001200
5501      0.015600
5502     -0.001200
5503     -0.001200
5504      0.006000
5505      0.006000
5506      0.016800
5507      0.016800
5508      0.065900
5509      0.065900
5510      0.044900
5511      0.044900
5512      0.049100
5513      0.059300
5514      0.059300
5515      0.034700
5516      0.034700
5517      0.013200
5518      0.028100
5519      0.028100
5520      0.028100
5521      0.031700
5522      0.034700
5523      0.034700
5524      0.037700
5525      0.037700
5526      0.033500
5527      0.028700
5528      0.028700
5529      0.036500
5530      0.032900
5531      0.032900
5532      0.039500
5533      0.031700
5534      0.031700
5535      0.037100
5536      0.034100
5537      0.034100
5538      0.028100
5539      0.028100
5540      0.010200
5541      0.017400
5542      0.029900
5543      0.023400
5544      0.023400
5545      0.036500
5546      0.036500
5547      0.031700
5548      0.025800
5549      0.025800
5550      0.010800
5551      0.010800
5552      0.010800
5553      0.030500
5554      0.030500
5555      0.035900
5556      0.044900
5557      0.044900
5558      0.026900
5559      0.026900
5560     -0.001200
5561      0.034700
5562      0.003600
5563      0.003600
5564     -0.003600
5565      0.018000
5566      0.018000
5567      0.026400
5568      0.023400
5569      0.023400
5570      0.019200
5571     -0.000600
5572     -0.000600
5573      0.000600
5574      0.000600
5575      0.019200
5576      0.019200
5577      0.022800
5578      0.018600
5579      0.018600
5580      0.003000
5581      0.003000
5582      0.011400
5583      0.011400
5584      0.015600
5585      0.015600
5586      0.015600
5587      0.012600
5588      0.003000
5589      0.000000
5590      0.000000
5591      0.000000
5592     -0.001800
5593     -0.006600
5594     -0.006600
5595     -0.004800
5596     -0.004800
5597      0.002400
5598      0.013800
5599      0.013800
5600     -0.015600
5601     -0.009000
5602     -0.009000
5603     -0.014400
5604     -0.014400
5605     -0.008400
5606     -0.008400
5607     -0.014400
5608     -0.028100
5609     -0.028100
5610     -0.008400
5611     -0.010200
5612     -0.010200
5613     -0.009000
5614     -0.006000
5615     -0.014400
5616     -0.014400
5617     -0.024600
5618     -0.051500
5619     -0.027500
5620     -0.027500
5621     -0.024600
5622      0.022200
5623     -0.013200
5624     -0.013200
5625     -0.029900
5626     -0.042500
5627     -0.030500
5628     -0.030500
5629     -0.021000
5630     -0.021000
5631     -0.018600
5632     -0.018600
5633     -0.035300
5634     -0.035300
5635     -0.035300
5636     -0.032300
5637     -0.029300
5638     -0.029300
5639     -0.009600
5640     -0.009600
5641     -0.031100
5642     -0.037100
5643     -0.035900
5644     -0.035900
5645     -0.031700
5646     -0.044300
5647     -0.040700
5648     -0.040700
5649     -0.035900
5650     -0.035900
5651     -0.041900
5652     -0.041900
5653     -0.033500
5654     -0.040700
5655     -0.040700
5656     -0.026400
5657     -0.027500
5658     -0.035900
5659     -0.035900
5660     -0.047300
5661     -0.047300
5662     -0.047300
5663     -0.050900
5664     -0.050900
5665     -0.038300
5666     -0.030500
5667     -0.060500
5668     -0.060500
5669     -0.063500
5670     -0.044900
5671     -0.044900
5672     -0.038900
5673     -0.038900
5674     -0.050300
5675     -0.044300
5676     -0.044300
5677     -0.035900
5678     -0.035900
5679     -0.031700
5680     -0.031700
5681     -0.022200
5682     -0.022200
5683     -0.031100
5684     -0.031100
5685     -0.062900
5686     -0.062900
5687     -0.052100
5688     -0.052100
5689     -0.047300
5690     -0.047300
5691     -0.035900
5692     -0.023400
5693     -0.019800
5694     -0.019800
5695     -0.019800
5696     -0.022800
5697     -0.022800
5698     -0.028100
5699     -0.040100
5700     -0.040100
5701     -0.029300
5702     -0.029300
5703     -0.028100
5704     -0.019800
5705     -0.019800
5706     -0.014400
5707     -0.014400
5708     -0.022800
5709     -0.022800
5710     -0.030500
5711     -0.030500
5712     -0.029900
5713     -0.017400
5714     -0.017400
5715     -0.015600
5716      0.007200
5717      0.007200
5718     -0.005400
5719     -0.005400
5720     -0.007800
5721     -0.007800
5722     -0.017400
5723     -0.017400
5724     -0.031100
5725     -0.029900
5726     -0.012000
5727     -0.012000
5728     -0.004200
5729     -0.008400
5730     -0.008400
5731     -0.029900
5732     -0.029900
5733      0.025100
5734      0.025100
5735      0.014400
5736      0.014400
5737      0.000600
5738     -0.013200
5739     -0.004200
5740      0.006600
5741      0.006600
5742      0.014400
5743     -0.019800
5744     -0.015000
5745     -0.009000
5746     -0.009000
5747     -0.012600
5748     -0.012600
5749     -0.012000
5750     -0.012000
5751     -0.001800
5752     -0.006000
5753     -0.006000
5754      0.012000
5755     -0.007800
5756     -0.007800
5757      0.000600
5758      0.013200
5759      0.013200
5760      0.021600
5761      0.009000
5762      0.009000
5763      0.004800
5764      0.004800
5765      0.012000
5766      0.019800
5767      0.004200
5768      0.004200
5769      0.026400
5770      0.026400
5771      0.033500
5772      0.033500
5773      0.014400
5774      0.014400
5775      0.004200
5776      0.004200
5777      0.002400
5778      0.008400
5779      0.037700
5780      0.038300
5781      0.038300
5782      0.040700
5783      0.028700
5784      0.028700
5785      0.020400
5786      0.028100
5787      0.028100
5788      0.031100
5789      0.033500
5790      0.033500
5791      0.037100
5792      0.043700
5793      0.044300
5794      0.044300
5795      0.046700
5796      0.046700
5797      0.036500
5798      0.010800
5799      0.027500
5800      0.027500
5801      0.027500
5802      0.032300
5803      0.035900
5804      0.009600
5805      0.009600
5806      0.081400
5807      0.081400
5808      0.050900
5809      0.058100
5810      0.058100
5811      0.085000
5812      0.056900
5813      0.056900
5814      0.028100
5815      0.026400
5816      0.026400
5817      0.036500
5818      0.043100
5819      0.043100
5820      0.038300
5821      0.034100
5822      0.034100
5823      0.037100
5824      0.039500
5825      0.039500
5826      0.037100
5827      0.042500
5828      0.042500
5829      0.040100
5830      0.034700
5831      0.034700
5832      0.031700
5833      0.031700
5834      0.026400
5835      0.011400
5836      0.016800
5837      0.031700
5838      0.031700
5839      0.026900
5840      0.026900
5841      0.013800
5842      0.013800
5843      0.027500
5844      0.027500
5845      0.018000
5846      0.011400
5847      0.011400
5848      0.012600
5849      0.030500
5850      0.030500
5851      0.029900
5852      0.031100
5853      0.031100
5854      0.013800
5855      0.010200
5856      0.010200
5857      0.022800
5858      0.022800
5859      0.023400
5860      0.020400
5861      0.016200
5862      0.016200
5863      0.007200
5864      0.012000
5865      0.012000
5866      0.000600
5867     -0.007800
5868     -0.007800
5869      0.010800
5870      0.019800
5871      0.019800
5872      0.018000
5873      0.018000
5874      0.028700
5875      0.019200
5876      0.024600
5877      0.024600
5878      0.021000
5879      0.021000
5880      0.018000
5881     -0.004200
5882     -0.007200
5883     -0.007200
5884      0.016200
5885      0.016800
5886      0.016800
5887      0.014400
5888      0.018600
5889      0.018600
5890      0.017400
5891      0.017400
5892      0.016200
5893      0.016200
5894      0.013200
5895      0.013200
5896     -0.005400
5897      0.007800
5898      0.013200
5899      0.013200
5900      0.013200
5901      0.016200
5902      0.015600
5903      0.004200
5904      0.004200
5905      0.003000
5906      0.003000
5907      0.002400
5908     -0.002400
5909     -0.002400
5910     -0.014400
5911     -0.009000
5912     -0.009000
5913     -0.009000
5914     -0.009000
5915     -0.028100
5916     -0.013200
5917     -0.013200
5918     -0.016200
5919     -0.016200
5920     -0.014400
5921     -0.009600
5922     -0.009600
5923     -0.021000
5924     -0.022200
5925     -0.022200
5926     -0.022200
5927     -0.009600
5928     -0.009600
5929     -0.032300
5930     -0.016800
5931     -0.016800
5932     -0.025800
5933     -0.049700
5934     -0.049700
5935     -0.026400
5936     -0.026400
5937     -0.025100
5938      0.013800
5939      0.013800
5940     -0.033500
5941     -0.028700
5942     -0.028700
5943     -0.035900
5944     -0.030500
5945     -0.030500
5946     -0.026900
5947     -0.025100
5948     -0.037700
5949     -0.037700
5950     -0.037700
5951     -0.018600
5952     -0.031700
5953     -0.025100
5954     -0.025100
5955     -0.013800
5956     -0.026900
5957     -0.026900
5958     -0.025800
5959     -0.020400
5960     -0.034700
5961     -0.034700
5962     -0.035300
5963     -0.032300
5964     -0.032300
5965     -0.015600
5966     -0.032900
5967     -0.032900
5968     -0.035300
5969     -0.047900
5970     -0.047900
5971     -0.034100
5972     -0.034100
5973     -0.028700
5974     -0.035300
5975     -0.028100
5976     -0.028100
5977     -0.034700
5978     -0.021000
5979     -0.021000
5980     -0.034100
5981     -0.043700
5982     -0.043700
5983     -0.043700
5984     -0.046700
5985     -0.024000
5986     -0.024000
5987     -0.039500
5988     -0.039500
5989     -0.033500
5990     -0.013200
5991     -0.013200
5992     -0.031700
5993     -0.031700
5994     -0.044300
5995     -0.044300
5996     -0.052100
5997     -0.033500
5998     -0.033500
5999     -0.035900
6000     -0.028100
6001     -0.025100
6002     -0.025100
6003     -0.025100
6004     -0.021600
6005     -0.029900
6006     -0.029900
6007     -0.032300
6008     -0.034100
6009     -0.034100
6010     -0.034100
6011     -0.038900
6012     -0.038900
6013     -0.038900
6014     -0.049700
6015     -0.038300
6016     -0.038300
6017     -0.028100
6018     -0.028100
6019     -0.038300
6020     -0.038300
6021     -0.036500
6022     -0.040100
6023     -0.040100
6024     -0.040100
6025     -0.037100
6026     -0.034700
6027     -0.034700
6028     -0.047300
6029     -0.050300
6030     -0.050300
6031     -0.050300
6032     -0.052700
6033     -0.035900
6034     -0.035900
6035     -0.037700
6036     -0.048500
6037     -0.048500
6038     -0.048500
6039     -0.050900
6040     -0.043700
6041     -0.043700
6042     -0.044300
6043     -0.044300
6044     -0.048500
6045     -0.047900
6046     -0.047900
6047     -0.024600
6048     -0.035900
6049     -0.035900
6050     -0.031700
6051     -0.032300
6052     -0.032300
6053     -0.029300
6054     -0.014400
6055     -0.014400
6056     -0.024600
6057     -0.040700
6058     -0.040700
6059     -0.035300
6060     -0.044300
6061     -0.044300
6062     -0.040100
6063     -0.031100
6064     -0.031100
6065     -0.031700
6066     -0.038900
6067     -0.038900
6068     -0.044900
6069     -0.035900
6070     -0.035900
6071     -0.032900
6072     -0.015000
6073     -0.015000
6074     -0.015600
6075     -0.028100
6076     -0.028100
6077     -0.021600
6078     -0.016800
6079     -0.016800
6080     -0.018000
6081     -0.018000
6082     -0.012000
6083     -0.012000
6084     -0.016200
6085     -0.024600
6086     -0.024600
6087     -0.034700
6088     -0.031100
6089     -0.031100
6090     -0.028700
6091     -0.017400
6092     -0.017400
6093     -0.004200
6094     -0.004200
6095     -0.004200
6096     -0.004200
6097     -0.022800
6098     -0.022800
6099     -0.047300
6100     -0.029300
6101     -0.029300
6102     -0.021000
6103     -0.021000
6104     -0.010800
6105     -0.009600
6106     -0.019200
6107     -0.019200
6108      0.014400
6109      0.001200
6110      0.001200
6111      0.006600
6112      0.023400
6113      0.023400
6114     -0.026900
6115     -0.022800
6116     -0.022800
6117     -0.007800
6118     -0.008400
6119     -0.008400
6120     -0.006000
6121      0.001800
6122      0.001800
6123      0.006600
6124      0.019200
6125      0.019200
6126      0.012600
6127      0.003600
6128      0.003600
6129      0.009600
6130      0.009600
6131     -0.004200
6132     -0.004200
6133     -0.007200
6134     -0.007200
6135     -0.024000
6136     -0.023400
6137     -0.009000
6138     -0.009000
6139     -0.010800
6140     -0.010800
6141      0.002400
6142      0.002400
6143      0.002400
6144      0.000600
6145      0.003000
6146      0.003000
6147      0.012000
6148      0.012000
6149      0.004200
6150     -0.001200
6151     -0.001200
6152      0.013200
6153      0.024000
6154      0.024000
6155      0.001800
6156      0.011400
6157      0.011400
6158      0.006600
6159     -0.002400
6160     -0.002400
6161      0.019800
6162      0.019800
6163      0.000600
6164      0.000600
6165     -0.007800
6166     -0.007800
6167      0.004800
6168      0.004800
6169      0.018000
6170      0.029900
6171      0.029900
6172      0.027500
6173      0.027500
6174      0.032900
6175      0.032900
6176      0.032900
6177      0.033500
6178      0.024600
6179      0.004800
6180      0.004800
6181     -0.001800
6182      0.014400
6183      0.014400
6184      0.023400
6185      0.029300
6186      0.029300
6187      0.022800
6188      0.028700
6189      0.028700
6190      0.037100
6191      0.033500
6192      0.028700
6193      0.028700
6194      0.029900
6195      0.034700
6196      0.035300
6197      0.035300
6198      0.020400
6199      0.032300
6200      0.032300
6201      0.026900
6202      0.022800
6203      0.022800
6204      0.032300
6205      0.049700
6206      0.049700
6207      0.041300
6208      0.041300
6209      0.044300
6210      0.037700
6211      0.011400
6212      0.011400
6213      0.028100
6214      0.033500
6215      0.033500
6216      0.038300
6217      0.038300
6218      0.037100
6219      0.037100
6220      0.025800
6221      0.062900
6222      0.062900
6223      0.052700
6224      0.040700
6225      0.040700
6226      0.004200
6227      0.004200
6228      0.001200
6229      0.019800
6230      0.024000
6231      0.024000
6232      0.035300
6233      0.035300
6234      0.028700
6235      0.037700
6236      0.037700
6237      0.033500
6238      0.025100
6239      0.025100
6240      0.034100
6241      0.034100
6242      0.034700
6243      0.030500
6244      0.030500
6245      0.036500
6246      0.036500
6247      0.023400
6248      0.016800
6249      0.025100
6250      0.025100
6251      0.038900
6252      0.038900
6253      0.038900
6254      0.029900
6255      0.025800
6256      0.019800
6257      0.019800
6258      0.012600
6259      0.023400
6260      0.023400
6261      0.029300
6262      0.039500
6263      0.039500
6264      0.022200
6265      0.022200
6266      0.029900
6267      0.022200
6268      0.022200
6269      0.035300
6270      0.000000
6271      0.000000
6272      0.025100
6273      0.028100
6274      0.028100
6275      0.032300
6276      0.037100
6277      0.057500
6278      0.057500
6279      0.032900
6280      0.029900
6281      0.029900
6282      0.020400
6283      0.020400
6284      0.027500
6285      0.013200
6286      0.013200
6287      0.005400
6288      0.010800
6289      0.010800
6290      0.012000
6291      0.018600
6292      0.009000
6293      0.009000
6294      0.008400
6295      0.020400
6296      0.015000
6297      0.015000
6298      0.010200
6299      0.010200
6300      0.010200
6301      0.008400
6302      0.008400
6303      0.001800
6304      0.006600
6305      0.006600
6306      0.006600
6307      0.022800
6308      0.009600
6309      0.009600
6310     -0.003600
6311     -0.003600
6312      0.000600
6313     -0.007800
